Frame,Accelerometer X,Accelerometer y,Accelerometer Z,Compass,Gyroscope X,Gyroscope Y,Gyroscope Z
0,0.0,0.0,-0.4,2.15110445022583,0.41829653924781807,0.544540675359923,0.2947335894169256
1,0.0,0.0,-0.3,2.151104211807251,0.6264324327623012,0.496124845170709,0.8014847950321613
2,0.0,0.0,-0.3,2.15110445022583,0.25125700903822834,0.2922233494278681,0.4997769247774295
3,0.0,0.0,-0.2,2.1511049270629883,0.6368284150073239,0.5632299574507851,0.38368531165309694
4,0.0,-0.0,-0.2,2.151104688644409,0.7652583306745788,0.03869953576224494,0.9550138332192719
5,-0.0,0.0,-0.1,2.1511049270629883,0.9696748880211594,0.9556761824834367,0.6222328869828252
6,0.0,-0.0,-0.1,2.1511051654815674,0.763569183705758,0.011389864579986697,0.5925474863953325
7,0.0,-0.0,-0.1,2.1511049270629883,0.8067258043083366,0.2488441572095259,0.7790848924025728
8,-0.0,0.0,-0.1,2.1511051654815674,0.7735837078186241,0.4873440856150236,0.19500792451050764
9,0.0,0.0,-0.0,2.1511051654815674,0.3977780783976851,0.4614480003244339,0.8978903658297881
10,0.0,-0.0,-0.0,2.1511051654815674,0.4963744329557169,0.40046625172595196,0.9322584048696522
11,-0.0,0.0,-0.0,2.1511051654815674,0.29178600702259727,0.6615466819430833,0.9703656702217474
12,0.0,-0.0,-0.0,2.1511054039001465,0.7890572622112839,0.9588539779132089,0.4722099320006825
13,0.0,0.0,-0.0,2.1511051654815674,0.5728408302415736,0.5493684154420019,0.15514446231202828
14,0.0,0.0,0.0,2.1511054039001465,0.537896151888791,0.2945534711084391,0.5651551282217321
15,0.0,0.0,0.0,2.1511056423187256,0.4464481159280915,0.23324130208111782,0.10776103038275742
16,0.0,0.0,0.0,2.1511054039001465,0.8915486510270098,0.39051901337135275,0.11890584087120959
17,0.0,0.0,0.0,2.1511054039001465,0.6307735270363506,0.1927515079084937,0.02610083996899648
18,0.0,0.0,0.0,2.1511054039001465,0.4995749691000073,0.7715726209564266,0.3961923319379296
19,0.0,0.0,0.0,2.1511054039001465,0.23821562352608694,0.32561792419241264,0.7564525756649952
20,0.0,0.0,0.0,2.1511058807373047,0.7212622029567108,0.5972242447877122,0.7688595988197162
21,0.0,0.0,0.0,2.1511058807373047,0.6583454116085967,0.8551755902524234,0.6303763161791021
22,0.0,0.0,0.0,2.1511058807373047,0.37595266963244167,0.2626577312982822,0.1774035841581727
23,0.0,0.0,0.0,2.1511058807373047,0.9163604104555548,0.3662007288089325,0.4053398284412585
24,0.0,0.0,0.0,2.1511058807373047,0.13102291959791057,0.3216231453379298,0.1167390623288086
25,0.0,0.0,0.0,2.1511058807373047,0.451756559270284,0.25231625899502386,0.5742272039954043
26,0.0,0.0,0.0,2.1511058807373047,0.7592108477478563,0.9847225516459106,0.7229613727406498
27,0.0,0.0,0.0,2.1511058807373047,0.7247587780685091,0.16941648310736135,0.5631675148981896
28,0.0,0.0,0.0,2.1511058807373047,0.28740889703714523,0.402630483104471,0.7089309788103196
29,0.0,0.0,0.0,2.1511058807373047,0.7974379010947782,0.6888686316710967,0.383548014048652
30,-0.0,0.0,-0.0,2.1511058807373047,0.09202624058316378,0.16848322674837313,0.7037185438213956
31,-0.0,-0.0,0.0,2.1511058807373047,0.09602315807358397,0.38731638158798765,0.47096734543792373
32,-0.0,-0.0,0.0,2.1511058807373047,0.22985383823648065,0.3151100796892923,0.5317932797385726
33,-0.0,0.0,0.0,2.1511058807373047,0.7793366924183968,0.3361051510570624,0.9771559736189065
34,0.0,-0.0,0.0,2.1511058807373047,0.3226729439058106,0.5526921659162987,0.5899453726167228
35,-0.0,0.0,-0.0,2.1511058807373047,0.9510229917270138,0.20935887105576612,0.3562490875129247
36,0.0,-0.0,-0.0,2.1511058807373047,0.9717900255122012,0.25095959582986394,0.27399874532941737
37,-0.0,0.0,0.0,2.1511058807373047,0.6245575649571669,0.9522401943970238,0.5249361525166045
38,0.0,0.0,-0.0,2.1511058807373047,0.37519844839216376,0.6536748353239223,0.49493164866590866
39,0.0,-0.0,0.0,2.151106119155884,0.8878146047118735,0.7758483864076805,0.10384910152072269
40,-0.0,0.0,-0.0,2.151106119155884,0.9292993072806655,0.6747716775748219,0.03999555299103996
41,6.0,3.9,0.1,2.151106119155884,0.44364919069410746,0.681303244100224,0.022916105840392387
42,5.1,3.4,0.1,2.151106119155884,0.40803785170138696,0.3631539819426671,0.17461546372814551
43,3.1,2.0,0.0,2.151106119155884,0.5684782907779524,0.7445523422479372,0.9689835907808475
44,4.0,2.6,0.0,2.1511058807373047,0.6184680151428947,0.04858232725442513,0.061686664987444795
45,2.1,1.3,0.0,2.1511058807373047,0.6243411790786852,0.49563175350014943,0.6630096744210502
46,3.6,2.4,0.0,2.1511058807373047,0.5798057006675787,0.3360008578052355,0.23014088542036526
47,1.7,1.1,0.0,2.1511058807373047,0.5961447102707635,0.5564001277445652,0.640549862849716
48,1.8,1.2,0.0,2.1511058807373047,0.9384595684434889,0.990731103705588,0.47454377655155155
49,2.2,1.5,0.0,2.151106119155884,0.7278306093311163,0.47471679159131774,0.8684626820933676
50,2.8,1.8,0.0,2.1510250568389893,0.48255206628744596,0.19245315916826444,0.7783527903088495
51,3.0,2.0,0.0,2.150851011276245,0.6937877766873313,0.5310044422769653,0.26703360317028524
52,3.4,2.2,0.0,2.150813102722168,0.7898540452905924,0.9455579369350654,0.3524260835875893
53,3.5,2.3,0.0,2.1506192684173584,0.8999323527927979,0.17527551477615277,0.9205778332786516
54,3.9,2.5,0.0,2.150286912918091,0.4630875890241771,0.7616918432591635,0.4474927876082826
55,3.9,2.6,0.0,2.150324821472168,0.07813418069313238,0.09775704288675235,0.8320945075503627
56,3.7,2.4,0.0,2.1503658294677734,0.873657090741886,0.6230261695824583,0.28660674984760215
57,1.8,1.2,0.0,2.1503798961639404,0.888990493585555,0.20806306721376155,0.26707618326367877
58,0.2,0.1,0.0,2.1503818035125732,0.9308811087763778,0.6482146466884278,0.0802975051000766
59,-1.1,-0.7,-0.0,2.1503782272338867,0.1991178505895198,0.5134095333290898,0.041203398260309165
60,-1.5,-1.0,-0.0,2.1503775119781494,0.507320220583049,0.09033346393961972,0.9380627373977993
61,-2.0,-1.3,-0.0,2.150388240814209,0.7545268477429292,0.49880737917220763,0.2055604716843933
62,-2.0,-1.3,-0.0,2.1503849029541016,0.7447576998505737,0.03835826210789639,0.879790214278246
63,-2.2,-1.4,-0.0,2.1503829956054688,0.8167887361716211,0.8880866503301016,0.501111125752642
64,-2.0,-1.3,-0.0,2.1503844261169434,0.9373198859981565,0.5465040153362158,0.7558896442553794
65,-2.1,-1.4,-0.0,2.150386095046997,0.05429829478804549,0.12035559584634925,0.8196754899809644
66,-2.3,-1.5,-0.0,2.1503868103027344,0.48320717830651183,0.14636335382360954,0.2468802217553413
67,-1.8,-1.2,-0.0,2.1503870487213135,0.15043202718931947,0.496015307833356,0.596830035251665
68,-0.7,-0.4,-0.0,2.1503870487213135,0.7682428361559558,0.7566868665326215,0.8998597670645481
69,0.2,0.1,0.0,2.1503868103027344,0.5630681971779611,0.0470755814611824,0.8232070938774979
70,1.3,0.8,0.0,2.150386333465576,0.016464062607183694,0.39394846978104314,0.5951294405631167
71,1.9,1.2,0.0,2.150385856628418,0.11341149765953584,0.5569659459748693,0.3254677530270683
72,2.7,1.8,0.0,2.1503853797912598,0.5208024645550313,0.9910392443126045,0.8071649791237318
73,3.1,2.0,0.0,2.1503849029541016,0.16526713803933513,0.013358802147236726,0.38654841830939557
74,3.6,2.4,0.0,2.1503849029541016,0.22443240468184678,0.9650459397303445,0.7932809654828266
75,3.8,2.5,0.0,2.150383710861206,0.9938117197909602,0.20280907673819548,0.06033377690740871
76,4.3,2.8,0.1,2.150383949279785,0.07585523673943773,0.18309853352568906,0.8388875959086162
77,4.3,2.8,0.1,2.150383710861206,0.7657329705459139,0.956041197623039,0.9919850446903942
78,4.0,2.6,0.0,2.150383234024048,0.8657600068135607,0.5894760648777668,0.625729026628235
79,3.9,2.5,0.0,2.1503827571868896,0.8267713212447133,0.6567967874236255,0.16073172550867776
80,3.8,2.5,0.0,2.150381326675415,0.4780096888781268,0.7459196113955338,0.03745620263567262
81,3.8,2.5,0.0,2.1503820419311523,0.24552996148990547,0.8502407339264729,0.39187786414212
82,3.8,2.5,0.0,2.150381565093994,0.5190620146597275,0.24869843947731118,0.6693759991637976
83,3.8,2.5,0.1,2.1503829956054688,0.9650475773701775,0.9241696705694279,0.1880443328684186
84,3.6,2.3,0.0,2.1503844261169434,0.4219650058641672,0.45119979354373585,0.561553365868659
85,-0.9,-0.6,-0.0,2.1503853797912598,0.5806570460573192,0.31353006210099976,0.8128214619306096
86,-0.4,-0.3,-0.0,2.1503870487213135,0.11832821845581809,0.06505656607759602,0.5712805616182434
87,0.2,0.1,-0.0,2.150388240814209,0.5444177309339372,0.9646223709010201,0.8681747107867517
88,-0.2,-0.1,-0.0,2.1503899097442627,0.45098361991343516,0.9025113069464693,0.609569902229219
89,-0.1,-0.1,0.0,2.1503913402557373,0.5197730914773372,0.44682182780267876,0.3147711272729835
90,8.6,5.6,0.1,2.150392532348633,0.126692218304706,0.39500049798652426,0.9882757308674741
91,7.9,5.2,0.1,2.1503939628601074,0.47490853025075386,0.3600335067222501,0.9987024885605156
92,5.6,3.7,0.1,2.1503958702087402,0.9604755243577158,0.5808830299791075,0.03977877950428066
93,3.8,2.5,0.0,2.1503868103027344,0.1645960724574561,0.36829034705296526,0.9510106606009305
94,3.9,2.6,0.0,2.150327205657959,0.2717107032191779,0.9185446426667412,0.9447762728641457
95,3.9,2.6,0.1,2.1503984928131104,0.2887561080576285,0.5781319224874565,0.6328464844931021
96,4.0,2.6,0.0,2.1503543853759766,0.7543010401300254,0.8068750353680506,0.7517010537461116
97,4.0,2.6,0.0,2.1504085063934326,0.7386832855808992,0.19645341879658273,0.6768526381797242
98,4.0,2.6,0.0,2.150355339050293,0.8183312795024388,0.5209389027746771,0.3431328134305327
99,4.0,2.7,0.1,2.1504197120666504,0.4956877904765894,0.8876089826345401,0.004866041258939635
100,1.2,0.8,0.0,2.1500401496887207,0.5210645348222821,0.2710450326201085,0.48544691253859196
101,-0.1,-0.1,0.0,2.1503326892852783,0.903002595547434,0.6959245349469737,0.5223887930948683
102,3.4,2.2,0.0,2.1499245166778564,0.5658442139002925,0.46575315227415703,0.15258883875019946
103,4.8,3.1,0.1,2.1504769325256348,0.7545268888508035,0.3558706248546606,0.6488690294588277
104,1.0,0.6,0.0,2.150047540664673,0.9020258333798123,0.8476602232193418,0.714587692589419
105,-0.7,-0.5,-0.0,2.1503868103027344,0.339227622715939,0.5286810404843619,0.5168449857088864
106,-1.5,-1.0,-0.0,2.1499669551849365,0.5103647306862618,0.2424475809771547,0.722508200448695
107,-2.0,-1.3,-0.0,2.1503634452819824,0.42021848100635917,0.720677690089089,0.6343007958514846
108,-2.4,-1.6,-0.0,2.149991512298584,0.16190678090629684,0.9480278876079085,0.7822089714169723
109,-2.6,-1.7,-0.0,2.15032696723938,0.14549570441851334,0.887630553917082,0.19882899017906375
110,-1.8,-1.2,-0.0,2.1497607231140137,0.3353199522653729,0.013151873633300615,0.24603605524455507
111,-0.1,-0.1,0.0,2.1498208045959473,0.3400863498922182,0.3557865309570597,0.6236258913374996
112,-0.1,-0.1,0.0,2.149448871612549,0.6053019456998447,0.9562795314625977,0.6981996208576865
113,-6.0,-3.9,-0.1,2.1496782302856445,0.08413021443909119,0.24202970295191406,0.3353380945414096
114,-3.2,-2.1,-0.0,2.149229049682617,0.29332985791387456,0.8161149913216615,0.13779348660512158
115,-1.7,-1.1,-0.0,2.1496710777282715,0.8140094392268699,0.5749453086373773,0.8590986942054224
116,-0.6,-0.4,-0.0,2.1492059230804443,0.1342644136692588,0.06686575974636133,0.8622631894966521
117,0.3,0.2,0.0,2.1496639251708984,0.5694734524695358,0.02899085361355469,0.08585970269217791
118,1.1,0.7,0.0,2.1491925716400146,0.40290991126280906,0.7304463218425516,0.12897307003196679
119,1.8,1.2,0.0,2.149686336517334,0.8661346052766968,0.322229420596961,0.09779663444556785
120,2.4,1.6,0.0,2.1493020057678223,0.4503139927414158,0.1204971626144622,0.309102904723206
121,2.9,1.9,0.0,2.149806499481201,0.9703136576876081,0.22478541051170176,0.2669346897334701
122,3.3,2.1,0.0,2.14949107170105,0.731768779857219,0.9586386876344524,0.015099580846624217
123,3.5,2.3,0.0,2.1499791145324707,0.72811338667718,0.47408174611945364,0.27100286429126974
124,3.0,1.9,0.0,2.1494929790496826,0.7300185117181152,0.5246797213128853,0.7222877435579216
125,0.9,0.6,0.0,2.150002956390381,0.06135451202822895,0.8845883702451879,0.21342034830583267
126,-0.7,-0.4,-0.0,2.149512767791748,0.44742209067163674,0.44221956045324096,0.9177324268582292
127,-1.8,-1.2,-0.0,2.149991989135742,0.21911472975671598,0.34113196197665363,0.014596986102536569
128,-2.5,-1.6,-0.0,2.1495354175567627,0.16535731990327018,0.6292416939579321,0.04887369167773237
129,-2.8,-1.8,-0.0,2.1499767303466797,0.7783356245930583,0.5582795076289787,0.06867197073276499
130,-2.7,-1.8,-0.0,2.1495606899261475,0.9478925487558135,0.18223816843504181,0.9422697948887021
131,-2.3,-1.5,-0.0,2.1499650478363037,0.6697836889251092,0.12408286788921286,0.24172554356963993
132,-1.4,-0.9,-0.0,2.1495845317840576,0.48641618980292034,0.9171688936190686,0.9442089676637782
133,-0.4,-0.2,-0.0,2.1499838829040527,0.23565358762138877,0.7339165299500165,0.21958773729831071
134,0.6,0.4,0.0,2.1495437622070312,0.3255079340163126,0.9899150752845213,0.15810551104284787
135,1.4,0.9,0.0,2.1500043869018555,0.05620377684314559,0.6451307881415371,0.19983359121627853
136,2.0,1.3,0.0,2.149541139602661,0.8969912710155649,0.6384927310449152,0.7292252262543168
137,2.6,1.7,0.0,2.150007963180542,0.8623043220101533,0.4247230673431335,0.4147764575473607
138,3.0,2.0,0.0,2.1495320796966553,0.9863561336164522,0.05543175407297607,0.1865757400122332
139,2.8,1.8,0.0,2.150007724761963,0.34875424096431473,0.5732717795744415,0.37126461492584173
140,1.0,0.7,0.0,2.1495361328125,0.019360647729359637,0.5215336449632839,0.784013115201701
141,-0.8,-0.5,-0.0,2.150022506713867,0.594436967449029,0.9523683163234153,0.10034914141546658
142,-1.8,-1.2,-0.0,2.149538516998291,0.5039287052051253,0.4514745116747664,0.3116658580445495
143,-2.5,-1.7,-0.0,2.150014638900757,0.6709918863050781,0.6137735457790772,0.15319180595281745
144,-2.6,-1.7,-0.0,2.1495590209960938,0.35697601295196857,0.5446447665974546,0.14465056198720616
145,-2.1,-1.4,-0.0,2.1500000953674316,0.5866357336847666,0.3969259894922459,0.18328512907778316
146,-1.3,-0.8,-0.0,2.1495842933654785,0.24960558285298107,0.4658224873793365,0.18303369807366676
147,-0.2,-0.1,0.0,2.149986743927002,0.003065934074548582,0.544105971544285,0.37103303887573824
148,0.7,0.5,0.0,2.1495933532714844,0.014191210939828336,0.48024286476401346,0.9350569605674237
149,1.5,1.0,0.0,2.1500258445739746,0.4296819505864953,0.3156904121791859,0.06816987348010739
150,2.1,1.4,0.0,2.1495628356933594,0.9428696112302313,0.6697429659399148,0.5940406349494627
151,2.7,1.8,0.0,2.1500327587127686,0.37270623055198127,0.6028063750424666,0.628557555378407
152,2.8,1.8,0.0,2.149562120437622,0.0531973447196773,0.6795442580803288,0.29849650952949536
153,1.1,0.7,0.0,2.150047540664673,0.14112094147653598,0.9736569646006206,0.7811362279351503
154,-0.9,-0.6,-0.0,2.149588108062744,0.8540712525864834,0.11150621970045738,0.35105073175832835
155,-1.9,-1.2,-0.0,2.1500754356384277,0.7035254072197196,0.7600572492613393,0.9311484362729481
156,-2.5,-1.6,-0.0,2.149600028991699,0.7781693240883665,0.8506324126255121,0.15631189977600224
157,-2.5,-1.7,-0.0,2.1500673294067383,0.15611301181283999,0.9048818293531407,0.37786291399085825
158,-2.4,-1.5,-0.0,2.1496222019195557,0.04864139797903311,0.1944608845707665,0.0182013721520623
159,-2.6,-1.7,-0.0,2.1500535011291504,0.03420027047736807,0.3189298766323897,0.8269522950849033
160,-2.8,-1.8,-0.0,2.149646759033203,0.8786251282415074,0.3448884743041515,0.09783691395653926
161,-2.9,-1.9,-0.0,2.1500518321990967,0.9838945046798785,0.5169547253212184,0.9339475500444896
162,-3.0,-2.0,-0.0,2.149625778198242,0.08463562383224266,0.7178054218557836,0.4648214629768538
163,-3.0,-2.0,-0.0,2.150094509124756,0.5743993008495362,0.21623692270199435,0.04115136671710695
164,-1.3,-0.9,-0.0,2.1496260166168213,0.37242978986862596,0.845752119218277,0.1389143666261684
165,-0.2,-0.1,-0.0,2.150104522705078,0.9372194753678394,0.018078412543461764,0.14304655275311517
166,-4.5,-2.9,-0.1,2.1496315002441406,0.4313839343205791,0.1550841716651905,0.4613587709770788
167,-8.5,-5.6,-0.1,2.150099039077759,0.9963017124075721,0.07593491535085894,0.5335997393467927
168,-7.0,-4.5,-0.1,2.149620771408081,0.2516061170164545,0.41129074642196206,0.0573948673438085
169,-5.9,-3.7,-0.1,2.1501073837280273,0.3237949493487656,0.548206118732354,0.45114028375236903
170,-4.8,-3.1,-0.1,2.1496121883392334,0.45314450234802683,0.32598087423116373,0.13018771241766247
171,-3.3,-2.2,-0.0,2.150116443634033,0.9622802284415287,0.6473668667804241,0.6496931919515359
172,-5.8,-3.8,-0.1,2.149606227874756,0.6755778804779702,0.5296361672545908,0.4119244320828598
173,-4.8,-3.2,-0.0,2.150275230407715,0.6729157087663863,0.03038085182834016,0.055716305952092426
174,-3.8,-2.5,-0.0,2.1498591899871826,0.35633301284144103,0.48756808651601635,0.6355941902951694
175,-2.3,-1.5,-0.0,2.1502230167388916,0.33339943754798207,0.6574297028123753,0.9830148335163942
176,-0.5,-0.3,0.0,2.150467872619629,0.44015419628096153,0.22650574505582932,0.9547584531449688
177,1.2,0.8,0.0,2.1519765853881836,0.7376951764859905,0.7831135164126867,0.5076414829734415
178,2.4,1.6,0.0,2.1521339416503906,0.7338679443237343,0.3938130409667062,0.8709425354987832
179,3.1,2.0,0.0,2.152378559112549,0.31774018162691253,0.36398035792968675,0.2714557444766673
180,3.4,2.2,0.0,2.152296543121338,0.8253204715301743,0.04618938332766109,0.10856383453293073
181,3.5,2.3,0.0,2.1521565914154053,0.35065903514862584,0.36649014218574394,0.2894728249671551
182,3.7,2.4,0.0,2.152125835418701,0.12557987033788764,0.8068059102066301,0.9016085293060542
183,3.7,2.4,0.1,2.1521174907684326,0.6593005982080502,0.9960127704217482,0.6426964024197052
184,1.4,0.9,-0.0,2.1521339416503906,0.43362186254623614,0.12421494376177222,0.5084427401483969
185,-0.9,-0.6,-0.0,2.1520822048187256,0.660088508899573,0.4753383682373131,0.5910468956634983
186,0.2,0.1,-0.0,2.15213680267334,0.7887371107638514,0.8900979327562856,0.08013776148902862
187,-0.2,-0.2,-0.0,2.1521081924438477,0.7087551406537578,0.18208961792816125,0.1673749070453635
188,0.2,0.2,-0.0,2.1521172523498535,0.9679244583296013,0.6073431234902603,0.6004068046211269
189,3.0,1.9,0.0,2.1521177291870117,0.20209565151616993,0.5596546893757555,0.9651778624026482
190,10.8,7.1,0.1,2.1521196365356445,0.0822989799450714,0.04146761686004685,0.6219939293262685
191,4.2,2.7,0.1,2.152121067047119,0.8558066826717663,0.7572315140041032,0.17954239868194644
192,4.2,2.8,0.1,2.1521222591400146,0.43982701104310584,0.8125898582153661,0.9659595476687197
193,3.8,2.5,0.0,2.1521294116973877,0.411111277285922,0.7107909157834215,0.8485527537797602
194,4.3,2.8,0.1,2.1521244049072266,0.8364488613591572,0.09398110609129051,0.24255116515892783
195,3.9,2.6,0.0,2.15212345123291,0.4324803173393331,0.18869676167822413,0.5729095421917066
196,4.4,2.9,0.1,2.1521220207214355,0.7414515895850626,0.900317753902978,0.44874896800302133
197,3.9,2.6,0.0,2.152122735977173,0.44990530889604885,0.17767917435888536,0.47417602765561373
198,4.4,2.9,0.1,2.1521224975585938,0.1692623146427733,0.2527740759371847,0.34924079163611166
199,4.0,2.6,0.0,2.1521263122558594,0.3735707701926646,0.01131951116961738,0.06598439659228583
200,0.6,0.4,0.0,2.152127742767334,0.048939271917649685,0.2632049747260168,0.9878301761878077
201,-0.3,-0.2,-0.0,2.1521339416503906,0.31298686799441666,0.9901648575340073,0.110333343880896
202,5.7,3.7,0.1,2.1521432399749756,0.6710309681699757,0.4491421342794545,0.9788227842409356
203,6.1,4.0,0.1,2.152137279510498,0.8373903485110659,0.2920624268330376,0.16772731734825896
204,2.5,1.6,0.0,2.1521315574645996,0.1691822749729779,0.11647418350204142,0.8274434971280007
205,-0.3,-0.2,0.0,2.1521496772766113,0.09752671104073418,0.7822178847770141,0.5582111779557257
206,-0.9,-0.6,-0.0,2.1521592140197754,0.10255110477311935,0.4623765990895967,0.3510196196335269
207,-2.1,-1.4,-0.0,2.152149200439453,0.7664098430437878,0.24106721992554037,0.764822347824911
208,-1.9,-1.3,-0.0,2.1521506309509277,0.35310205437489706,0.14108930254801655,0.6878332914186754
209,-2.9,-1.9,-0.0,2.1521575450897217,0.9999537426993621,0.6329050978296591,0.5948530178886018
210,-1.8,-1.2,-0.0,2.152158498764038,0.25518403592225625,0.8802365867320743,0.2987839512177989
211,-1.8,-1.2,-0.0,2.1521596908569336,0.7744174356683178,0.939837129624584,0.9314555508812379
212,-2.4,-1.6,-0.0,2.152162790298462,0.8610045512079134,0.4043635782852657,0.8550241608457608
213,-7.2,-4.7,-0.1,2.152165174484253,0.2030128302567621,0.5552599643052698,0.4923005212174172
214,-3.9,-2.5,-0.0,2.152167320251465,0.7270196774386396,0.9357423296581442,0.9875203094863985
215,-1.8,-4.9,-0.0,2.152168035507202,0.28726578490511245,0.24713084044133948,0.042132708480485004
216,0.2,-3.5,-0.0,2.152168035507202,0.8087927093002975,0.40165203868583943,0.15750995337465823
217,-1.7,0.9,-0.0,2.1521670818328857,0.12538255115377928,0.1346351844856306,0.2931406399390948
218,0.5,0.9,0.0,2.152165174484253,0.5044763781950506,0.5467335728614741,0.7068608387928058
219,0.9,0.8,0.0,2.152163028717041,0.35838954748672047,0.22883911205737195,0.4687522882936871
220,2.2,1.4,0.0,2.152160167694092,0.8209079925025703,0.8386512897322479,0.7435525203678582
221,2.3,1.4,0.0,2.152158737182617,0.04513381090981783,0.5108010254328926,0.2616811510044733
222,3.2,2.0,0.0,2.1521544456481934,0.5206897072300215,0.2608657917486521,0.03027335794524677
223,3.1,1.9,0.0,2.152151346206665,0.3361743394235793,0.8490065277381046,0.7236447877328606
224,3.8,2.4,0.0,2.149085283279419,0.07743038010387016,0.11255188212805922,0.032359196313935246
225,3.6,2.2,0.0,2.1404552459716797,0.5407853715718359,0.02827436264347627,0.25261411274354106
226,3.4,2.1,0.0,2.1333508491516113,0.7353315574080092,0.08636960047257058,0.4877222783652553
227,0.8,0.5,0.0,2.1300811767578125,0.900926953583426,0.4324178660115163,0.6253895827984841
228,-0.4,-0.3,-0.0,2.1286044120788574,0.2642824046563369,0.01982743381525154,0.4534167460057761
229,-2.1,-1.3,-0.0,2.1279501914978027,0.9279477308625654,0.7469874646912966,0.7968635508432534
230,-2.3,-1.4,-0.0,2.1276609897613525,0.23939631818278684,0.5808985629393932,0.5728116516648892
231,-2.0,-5.0,-0.0,2.127537250518799,0.4996397029320927,0.166604845458733,0.928499868118994
232,-1.3,-4.7,-0.0,2.1274828910827637,0.09177042407399028,0.1729735764731959,0.788423647813462
233,-2.6,-4.0,-0.0,2.1274609565734863,0.6874754784572825,0.7533510232425253,0.6834349323367398
234,-1.7,-3.8,-0.0,2.127452850341797,0.981039750696426,0.6744083238052291,0.319968791385592
235,-2.9,-3.7,-0.0,2.127450942993164,0.23350238204439733,0.031915784974716366,0.8713707852725834
236,-3.6,-0.1,-0.0,2.1274502277374268,0.5989964274841517,0.2711065436157415,0.5622175876096218
237,-4.0,-1.6,-0.0,2.1274502277374268,0.30809700106474047,0.7548436953935751,0.7598503691395406
238,-0.5,-0.1,-0.0,2.127448558807373,0.8143609673963047,0.36999757369342234,0.22340475206022103
239,-0.5,-0.3,-0.0,2.1274478435516357,0.7041844908037848,0.04280753324126507,0.9894716945953557
240,-6.7,-3.6,-0.1,2.1242787837982178,0.6420548243536492,0.8606175974441662,0.34972131033315956
241,-8.2,-4.4,-0.1,2.1152384281158447,0.17118343728449203,0.05997160908000887,0.9254362904845678
242,-3.9,-2.1,-0.0,2.1034064292907715,0.6537626707349229,0.2827778151578537,0.7721895439458365
243,-3.6,-1.9,-0.0,2.0902445316314697,0.5132514527819358,0.304180208568816,0.4682510905685974
244,-1.6,-0.8,-0.0,2.0767769813537598,0.8726087170842144,0.04720393086650776,0.7322138702632399
245,-1.8,-0.9,-0.0,2.0673646926879883,0.9403298718774946,0.554275613047255,0.7214113907993264
246,-0.2,-0.1,-0.0,2.0629706382751465,0.19095981476425294,0.683355752184365,0.5656705243689684
247,-0.2,-0.1,-0.0,2.0609166622161865,0.07600461279822368,0.22575077947987832,0.1272156517522265
248,0.8,0.4,0.0,2.059969425201416,0.8779921134853245,0.5197345162666908,0.4237084941787226
249,-0.5,-0.3,-0.0,2.0595450401306152,0.7902340268482817,0.556819423781185,0.9815882647853345
250,0.8,0.4,0.0,2.059335947036743,0.8999155254063115,0.9299526494363941,0.357143774680879
251,12.4,6.6,0.1,2.0592212677001953,0.8259114464842272,0.20916236849047043,0.2313899043858063
252,9.3,4.9,0.1,2.0591678619384766,0.34191503493247033,0.6712941293108542,0.23437163110747816
253,4.3,2.3,0.0,2.0591447353363037,0.2925482989070759,0.20765187262087392,0.4074766998635073
254,3.9,2.1,0.0,2.0591325759887695,0.8703004561934582,0.4942636941562847,0.5262639861977443
255,3.7,2.0,0.0,2.0591282844543457,0.8657639436176527,0.544723167726459,0.420492575196858
256,4.3,2.3,0.1,2.0591278076171875,0.9032069244224542,0.3156734185338754,0.27220683184697625
257,3.9,2.1,0.0,2.059126853942871,0.9456540164492707,0.8543807575478526,0.34211319312368316
258,4.5,2.4,0.0,2.0591282844543457,0.12429472653118867,0.4571111252038398,0.8451029097749416
259,1.9,1.0,0.0,2.059130907058716,0.45725188088858815,0.07829967814961147,0.13070224387061702
260,-0.2,-0.1,-0.0,2.0591325759887695,0.8094124157588755,0.40577443861070717,0.5204495370774015
261,0.4,0.2,0.0,2.0591344833374023,0.4876472368779692,0.5827894752836209,0.36761438352580544
262,7.3,3.9,0.1,2.0591349601745605,0.19624450137043226,0.9418628231936375,0.05671157387552361
263,1.0,0.5,0.0,2.0591368675231934,0.038955715723758,0.5176838141304161,0.11990557899925092
264,-0.2,-0.1,-0.0,2.0591378211975098,0.8209341009880753,0.9414944124701138,0.8645152110828712
265,-1.7,-0.9,-0.0,2.059138059616089,0.2715815921419219,0.5621790339230236,0.555510846214372
266,-1.7,-0.9,-0.0,2.0591399669647217,0.9021678394385767,0.7986702514234543,0.9312765820462436
267,-2.8,-1.5,-0.0,2.0591416358947754,0.6167655563721185,0.1752277450625438,0.09118254028523687
268,-2.3,-1.2,-0.0,2.059142827987671,0.9291793273476749,0.03967033928154251,0.18948585986614586
269,-2.8,-1.5,-0.0,2.0591437816619873,0.7714891622634995,0.2757989407670899,0.3483270417192351
270,0.1,0.1,0.0,2.0591447353363037,0.48981197862231496,0.8052335084272733,0.2985882352916831
271,-2.2,2.6,-0.0,2.059147357940674,0.9741586302498745,0.5737699623162291,0.37055841903484465
272,-7.6,-0.5,-0.1,2.0591490268707275,0.5124901503259749,0.7565102541439487,0.4749942857667161
273,-7.2,-1.7,-0.1,2.0591506958007812,0.02737186263521818,0.35596595930980746,0.3735619294848709
274,-5.2,-0.4,-0.0,2.0591509342193604,0.581244577159046,0.6834383517388031,0.7785305744384446
275,-4.9,-1.1,-0.0,2.0591509342193604,0.9098215597087248,0.4827215954442887,0.29743121591981214
276,-3.1,0.5,-0.0,2.0591518878936768,0.8316117966179961,0.6654684892635644,0.48446635473145705
277,-4.3,2.2,-0.0,2.059152364730835,0.5044885080776952,0.284666951319107,0.27392568551755747
278,-3.1,3.7,-0.0,2.0591530799865723,0.23759263269825048,0.8660992764316469,0.7486841399754478
279,-2.0,2.6,0.0,2.059152841567993,0.2446900146723925,0.3519262417592156,0.10657689146807536
280,-2.4,3.2,-0.0,2.0624301433563232,0.7271058659574375,0.515134301993862,0.987042480778363
281,-2.9,1.2,-0.0,2.0714759826660156,0.289327423330505,0.5625663839816851,0.7997041451775766
282,-3.6,1.8,-0.0,2.0829548835754395,0.8237722880025206,0.35819953583921904,0.6575189506884864
283,-0.0,-3.4,-0.0,2.095503330230713,0.3497484473926893,0.6470285442615752,0.8851907446465952
284,0.1,-2.3,-0.0,2.108224391937256,0.6238393127980899,0.019456892114997903,0.8054530472184738
285,-0.8,-1.5,-0.0,2.1211066246032715,0.12273379072524404,0.9659499510390154,0.006812236203450506
286,0.4,0.0,0.0,2.136533498764038,0.12359904375941799,0.6075760404348881,0.24992153091832536
287,0.5,0.3,0.0,2.156954288482666,0.6772359218661024,0.1346101341733834,0.2826173934233597
288,1.6,1.4,0.0,2.1796069145202637,0.978070254876878,0.09356854191559805,0.16822023920811036
289,1.7,1.5,0.0,2.203494071960449,0.9108167896471936,0.982254288566891,0.20466028009095294
290,2.6,2.3,0.0,2.2275514602661133,0.5924783548767899,0.16244572123691114,0.7066407108568817
291,4.6,-0.3,0.0,2.2518155574798584,0.22541702976007305,0.9478132473215283,0.33303177866399725
292,5.1,0.3,0.0,2.2705001831054688,0.07570454844441199,0.882518875902615,0.7753034072367136
293,4.4,0.8,0.0,2.2794015407562256,0.41309801410931757,0.20102459317175525,0.138376118489563
294,2.7,4.4,0.0,2.2834179401397705,0.5452270963684999,0.6888015880709148,0.5869816761802693
295,3.0,3.3,0.0,2.285191059112549,0.01505231962192588,0.02668020065179777,0.8768333399365925
296,3.8,3.3,0.0,2.285956382751465,0.05169367580988682,0.4944636133486586,0.6241705037769922
297,3.5,2.9,0.0,2.2862801551818848,0.6716111920775227,0.37209225253845035,0.3875982872669237
298,1.3,1.1,0.0,2.286414623260498,0.4384365327757819,0.46749542146298806,0.861458981682383
299,-0.7,-0.5,-0.0,2.2864725589752197,0.7632516271722266,0.9143213525358609,0.10150659379427718
300,3.2,2.6,0.0,2.2833516597747803,0.3136414359349402,0.7231859530171478,0.6292170464028547
301,4.4,3.5,0.1,2.274632453918457,0.6734521068142568,0.18924791136126407,0.3214290452341515
302,0.7,0.6,0.0,2.2632155418395996,0.587044116683812,0.9529514275954808,0.12107347534819202
303,-0.8,-0.7,-0.0,2.2548937797546387,0.8710372735643588,0.9951032788552613,0.4333784635694392
304,-1.2,-0.9,-0.0,2.2512576580047607,0.03777931568142323,0.6221195128252571,0.3544849313550772
305,-2.2,-1.8,-0.0,2.2496707439422607,0.08721977509595047,0.4422615066615069,0.5687357661199398
306,-1.9,-1.5,-0.0,2.248974084854126,0.8116575516746222,0.7441284486257543,0.30801376011943016
307,-2.7,-2.2,-0.0,2.248664379119873,0.14571424890796159,0.9649437175366544,0.07014633851601193
308,0.6,-4.0,-0.0,2.2485146522521973,0.06932021695340829,0.21431483152924213,0.3416254747792613
309,1.2,-2.7,-0.0,2.2484426498413086,0.5226823420519205,0.045706950894393916,0.17928868064357906
310,1.6,-2.2,-0.0,2.2484147548675537,0.4543270725909111,0.13066401573572894,0.531773248616708
311,-5.7,-6.8,-0.1,2.2484045028686523,0.19168702361359635,0.4608581785581489,0.7708261799115763
312,-3.1,-5.1,-0.1,2.248398780822754,0.7535108423845864,0.7410771022634159,0.40057457551672826
313,-3.8,-4.7,-0.1,2.24839448928833,0.8615419996867725,0.837057501215655,0.25808124381055253
314,-1.1,-6.9,-0.0,2.24838924407959,0.6191613201926669,0.2849056642535298,0.6897614500421225
315,-2.6,-5.9,-0.1,2.248385190963745,0.019964533966503772,0.5626175669756612,0.47799507034752253
316,-1.2,-5.4,-0.0,2.2483811378479004,0.8866621916763938,0.3067281742127058,0.5136684374909275
317,-2.7,-4.6,-0.0,2.2450406551361084,0.06209179073718052,0.03000347722892216,0.48689217039353794
318,-3.7,0.5,-0.0,2.235832691192627,0.6541425273625637,0.5537559967819838,0.5041275412092376
319,-2.1,0.6,-0.0,2.223522663116455,0.686008710922995,0.5534213429857923,0.7486689631096904
320,-0.0,0.6,0.0,2.2103567123413086,0.5504658248543649,0.4196720568276594,0.07417110497241752
321,-6.8,-3.5,-0.1,2.1968789100646973,0.6885360565440259,0.7917254738938403,0.3664746531837788
322,-5.4,-2.8,-0.1,2.1835920810699463,0.6102796618587344,0.5385906836052109,0.3673548319264699
323,-2.2,-1.1,-0.0,2.167598247528076,0.09427930550728691,0.21624798883311602,0.4995289782450997
324,-2.9,-1.5,-0.0,2.1474266052246094,0.07582389096058684,0.0031159554165937076,0.14006708078952645
325,-1.2,-0.6,-0.0,2.1251375675201416,0.4455747296096092,0.462269882188603,0.0668094596290083
326,0.9,0.5,0.0,2.1023778915405273,0.6477517244600712,0.8596980394047304,0.6514626087231664
327,1.0,0.6,0.0,2.0843000411987305,0.8793968212899824,0.15817391458424734,0.5578459459499425
328,-2.3,-1.3,-0.0,2.0755228996276855,0.7820665593506058,0.05982725101655828,0.24682903807055334
329,-1.1,-0.5,-0.1,2.0716986656188965,0.6931210193564007,0.24942022625116578,0.5069139591288772
330,-1.8,-1.0,0.0,2.070131301879883,0.24888230405120326,0.8425500234537269,0.11799461277154799
331,-2.7,-1.5,-0.0,2.0703084468841553,0.761542689545777,0.1269336547924843,0.023947915688941168
332,-3.2,-1.7,-0.0,2.070552349090576,0.7119260643250049,0.8367211270131469,0.44951835437820564
333,-3.3,-1.8,-0.0,2.070695400238037,0.4810806619896878,0.17515218779009922,0.06633170041372527
334,-3.3,-1.8,-0.0,2.0707712173461914,0.2556291102697995,0.931274734428996,0.8619880286315168
335,-3.0,-1.6,-0.0,2.070810079574585,0.7681473919031212,0.012959621091426343,0.5286446568619664
336,-1.8,-1.0,-0.0,2.070828437805176,0.47960909522646,0.41312242227605067,0.9145324546340352
337,-0.3,-0.1,-0.0,2.0708272457122803,0.6709779292128814,0.963901605887454,0.5915520556231932
338,1.5,0.8,0.0,2.070830821990967,0.13492682208513718,0.6335288790598207,0.05242433331099261
339,2.6,1.4,0.0,2.0708322525024414,0.5940631014033861,0.19416473444470383,0.8425501702079521
340,3.3,1.8,0.0,2.0708327293395996,0.61495942268823,0.5224338367805929,0.43707960479709596
341,3.6,1.9,0.0,2.0708327293395996,0.3568683381540908,0.2693582015725269,0.3473441704720238
342,3.7,2.0,0.0,2.0708322525024414,0.5009489557170418,0.39379450893485646,0.025351127826486408
343,3.8,2.1,0.0,2.070833206176758,0.6149800900527743,0.34891819335361574,0.43373657274179933
344,3.9,2.1,0.1,2.0708281993865967,0.8568147133776577,0.990446733169158,0.3996447530908612
345,3.8,2.1,-0.0,2.0708320140838623,0.597161105913757,0.8729459351374069,0.16791529051824738
346,-1.1,-0.6,-0.0,2.070830821990967,0.5634518137584814,0.5922309030801848,0.3458964699921917
347,-0.1,-0.0,-0.0,2.070831060409546,0.32148040913259834,0.23821078148620345,0.38226714704490683
348,-0.1,-0.0,-0.0,2.0708305835723877,0.7125921477898616,0.9101385013040344,0.5409653023456757
349,0.2,0.1,0.0,2.070830821990967,0.5222126696233458,0.13075379946406107,0.2749332210272837
350,-0.5,-0.3,-0.0,2.0708305835723877,0.21804545819679788,0.14231051276019036,0.8305745079551259
351,10.9,6.0,0.1,2.0708305835723877,0.6164783784159524,0.9335402320073091,0.9419622563053732
352,6.0,3.3,0.1,2.070831060409546,0.6865166762357479,0.4105428486538334,0.5505954036371825
353,2.4,1.3,0.0,2.070830821990967,0.8008495053698378,0.2250449070070788,0.39382302176998474
354,0.5,0.3,0.0,2.070833921432495,0.5844489284980268,0.9354403929470597,0.7944757989586609
355,0.5,0.3,0.0,2.0708189010620117,0.1402506717131604,0.5170660272501452,0.9269602897674705
356,0.3,0.2,0.0,2.0708422660827637,0.7095926640474705,0.16344896767042827,0.02434754301881814
357,1.6,0.9,0.0,2.0708556175231934,0.4789640119811541,0.6037841183347088,0.27038464806070783
358,1.8,1.0,0.0,2.0708627700805664,0.28587323999750214,0.6575046831188933,0.11484797935749058
359,2.9,1.6,0.0,2.0708632469177246,0.13972031010120012,0.817035954875578,0.08121188966696113
360,2.8,1.6,0.0,2.070866823196411,0.48675967777598184,0.9929922642026056,0.1044273705752089
361,3.4,1.9,0.0,2.0708694458007812,0.8786742120176605,0.46317672926942677,0.5498317558595962
362,1.5,0.8,0.0,2.070871591567993,0.31779104205647424,0.18255264395158644,0.1716066714489063
363,0.4,0.2,0.0,2.0708720684051514,0.018807654005239538,0.3308430078733626,0.0125956451487792
364,-1.1,-0.6,-0.0,2.0708723068237305,0.9996549765550431,0.21853935520014345,0.6475804863681563
365,-1.2,-0.6,-0.0,2.0708742141723633,0.9094133271395021,0.5878074854891919,0.7052653995078972
366,-2.4,-1.3,-0.0,2.0708765983581543,0.15310782889526908,0.11896778681673337,0.0728708479101392
367,-1.9,-1.0,-0.0,2.070875883102417,0.9724493777609634,0.8064949230414193,0.5004467859353697
368,-3.0,-1.6,-0.0,2.070878267288208,0.5840408660024983,0.4992539891944544,0.39377834635495246
369,-1.9,-1.0,-0.0,2.070880889892578,0.262680752334874,0.8696898069079319,0.3789982656733919
370,-0.4,-0.2,-0.0,2.0708818435668945,0.06187795533176721,0.3502789444404545,0.21086152052697726
371,0.2,0.1,0.0,2.070882797241211,0.2478719609905714,0.8703008880724972,0.6785181818838476
372,-10.9,-6.0,-0.1,2.0708837509155273,0.7667367713594821,0.1290189947465722,0.4020496449956914
373,-6.8,-3.7,-0.1,2.0708847045898438,0.750399137287385,0.20430032929271646,0.9358221403936656
374,-5.8,-3.2,-0.1,2.07088565826416,0.8437236197850118,0.07338498172291363,0.1016799090153444
375,-4.0,-2.3,-0.0,2.0708866119384766,0.658588020881076,0.7641756483420726,0.4246990993686236
376,-5.5,-2.9,-0.1,2.070887327194214,0.9665362987343695,0.15726850559568561,0.6897858846695821
377,-5.2,-2.8,-0.0,2.070884943008423,0.28573730610642567,0.25223281192184666,0.9166612293173456
378,-6.0,0.1,-0.0,2.07088565826416,0.720444967620047,0.008168968972348867,0.8158605317162936
379,-4.4,-0.7,-0.0,2.07088565826416,0.2776953846383293,0.006655119477649185,0.7734752407953643
380,-2.6,-0.5,-0.0,2.0708866119384766,0.06582057363043703,0.31913638365674235,0.47779621755074453
381,0.9,-2.4,-0.0,2.0708770751953125,0.18847313570287816,0.5954245912232696,0.749622007838169
382,1.2,-0.1,0.0,2.0705337524414062,0.9951962431968895,0.0485676147719627,0.10718136595646555
383,0.1,-0.3,0.0,2.0705888271331787,0.5681806884832962,0.9699712387219541,0.9281409506344641
384,-1.2,-0.9,-0.0,2.070558547973633,0.22729680631152205,0.872477635888769,0.8973912793752815
385,-1.9,-1.2,-0.0,2.0712008476257324,0.397120957265756,0.6846051128390952,0.34013570795507697
386,-2.3,-1.3,-0.0,2.071192979812622,0.11471266007944714,0.32750130920615805,0.5507813710788109
387,-2.4,-1.4,-0.0,2.0742430686950684,0.6632975288929602,0.4282452151661851,0.55062651676853
388,-2.5,-1.4,-0.0,2.0810351371765137,0.4765333929538589,0.8035213836011929,0.3634241728754155
389,-2.4,-1.4,-0.0,2.0883467197418213,0.06790233260469358,0.7941627507650026,0.2450166263291349
390,-2.6,-1.5,-0.0,2.0919694900512695,0.20292546052605676,0.3227801834272651,0.31268071823362953
391,-1.8,-1.0,-0.0,2.0925240516662598,0.8226323598253213,0.6533078946555305,0.03504326909906008
392,-1.9,1.4,-0.0,2.0927066802978516,0.44516807976471984,0.21618514730203364,0.2283974679713946
393,-0.0,1.3,0.0,2.0926451683044434,0.7805903792762788,0.551368020879739,0.2897101124377097
394,1.3,1.6,0.0,2.092729091644287,0.09037054005581002,0.49058331547625067,0.8435817885908742
395,3.7,-0.2,0.0,2.0926461219787598,0.018585202600875594,0.19062317788205707,0.8475639826224193
396,3.1,1.2,0.0,2.0927281379699707,0.19899040018199654,0.6704642852348405,0.9127239922856676
397,1.5,0.6,0.0,2.092644691467285,0.19516816317516228,0.8741838985192678,0.5108861117718423
398,-0.3,-0.3,-0.0,2.092726230621338,0.5426786575064546,0.7290874763327091,0.7738431912625777
399,-0.3,-0.2,-0.0,2.0926060676574707,0.47671062514966267,0.11609906813100135,0.24911168347204005
400,0.0,-0.0,0.0,2.092738628387451,0.35084656298464034,0.782547977959399,0.41383005579358956
401,-0.5,-0.3,-0.0,2.094811201095581,0.2583542742860535,0.6011836388844796,0.577060331153575
402,-1.3,-0.8,-0.0,2.0999131202697754,0.04149388468205917,0.16184627479875324,0.7118207123894531
403,-1.8,-1.1,-0.0,2.1054067611694336,0.4069498368437713,0.03023151821961556,0.3144384178718219
404,-2.0,-1.2,-0.0,2.10817289352417,0.0667006832573166,0.82652809742973,0.3881869470791607
405,-2.4,-1.4,-0.0,2.1084988117218018,0.3427139676998161,0.6453395302810548,0.1332158778783511
406,-2.9,0.7,-0.0,2.1086807250976562,0.5799965260963574,0.41880442374019133,0.7311547595874897
407,-1.2,0.4,-0.0,2.108588695526123,0.6347408385160814,0.7333422550266597,0.6495981297076056
408,1.6,-1.2,0.0,2.108703136444092,0.8196955392030244,0.6461200137892775,0.8482716291540873
409,1.5,0.4,0.0,2.108593463897705,0.6832830462953723,0.936265789318432,0.2671489522458771
410,1.0,0.4,0.0,2.1087045669555664,0.5971089185036319,0.8045158317211487,0.18060630378975984
411,0.0,-0.1,-0.0,2.1086106300354004,0.7916462710283582,0.9329080604344797,0.737257204994666
412,-1.0,-0.6,-0.0,2.1087005138397217,0.33830211329248794,0.3237643016686307,0.8182911093366686
413,-2.0,-1.2,-0.0,2.108613967895508,0.9059190763148031,0.02653832141464496,0.5424287430788916
414,-1.4,-0.9,-0.0,2.1087422370910645,0.4255071815118949,0.9854902344067045,0.9217538056547183
415,-0.5,-0.3,-0.0,2.110751152038574,0.23285938940649475,0.8133090268745318,0.6917053311557038
416,0.6,0.4,0.0,2.1156535148620605,0.2735295582359967,0.6988018197296683,0.04319416897712214
417,1.6,1.0,0.0,2.1178789138793945,0.5303192905218985,0.6706305133041585,0.5892376289987391
418,2.4,1.5,0.0,2.1183910369873047,0.026735957001014277,0.09825471783299289,0.30713170084096053
419,3.1,1.9,0.0,2.11832332611084,0.8791892611423363,0.8685689025498065,0.03954187188666092
420,3.6,2.2,0.0,2.1184439659118652,0.905383307103041,0.0156553442581312,0.30332972559345117
421,4.1,2.5,0.1,2.118347644805908,0.07924087381269307,0.04748400515880091,0.0010063639236296273
422,4.3,2.6,0.1,2.1184868812561035,0.6067161817319553,0.45079658707222703,0.9382127717477537
423,4.2,2.5,0.0,2.1183409690856934,0.8604499019736271,0.3148659043489206,0.00256399207593061
424,4.0,2.4,0.1,2.11848783493042,0.17246271270493108,0.16166944574259434,0.29160812279169435
425,3.9,2.4,0.0,2.11834716796875,0.21788156229712452,0.12717164662239988,0.7212086059669519
426,3.9,2.4,0.0,2.1184816360473633,0.5825690728983218,0.30732137851238694,0.7784058591747174
427,3.9,2.4,0.0,2.118358612060547,0.4204947325422035,0.4568524447828528,0.020147636404298286
428,3.9,2.4,0.1,2.118471145629883,0.0036083976406051654,0.14299282504020416,0.017439155744547352
429,3.8,2.3,-0.0,2.118375778198242,0.7860075170256472,0.7624983972082746,0.9781616831424624
430,0.8,0.5,-0.0,2.11844539642334,0.6581383567510721,0.7611187589295757,0.6171867162580688
431,-1.0,-0.6,-0.0,2.1184122562408447,0.7553353454844951,0.4077002798728755,0.866143487778583
432,0.4,0.3,-0.0,2.1184253692626953,0.5409275410152016,0.840720465575987,0.4750332668374194
433,-0.4,-0.2,-0.0,2.1184229850769043,0.12698806175543387,0.9045410218091574,0.6310713200050657
434,0.2,0.1,0.0,2.118424415588379,0.7189977361550767,0.16341704186663386,0.672052165513117
435,7.8,4.7,0.1,2.1184256076812744,0.21621843779593142,0.20354281380217376,0.3481234553118372
436,8.0,4.9,0.1,2.118427276611328,0.7595085546226861,0.11544563443550859,0.9517478841142302
437,3.7,2.2,0.0,2.1184282302856445,0.1988027983585129,0.5790369079838817,0.9842289844663638
438,4.3,2.6,0.0,2.118443727493286,0.444075789528368,0.829374400512932,0.42072402096854533
439,4.0,2.4,0.0,2.1184630393981934,0.025113224748142926,0.9110278667310979,0.7112267713275665
440,4.4,2.7,0.1,2.118657350540161,0.9794226948975906,0.05759358703794171,0.9232425226232588
441,4.0,2.4,0.0,2.1187005043029785,0.49524024811197875,0.6516605128745819,0.21696567087961605
442,4.5,2.7,0.1,2.118722915649414,0.5828555792220499,0.7353146998065804,0.43874254853861316
443,4.0,2.5,0.0,2.118731737136841,0.2741425062897439,0.18319177568407796,0.5525479478592966
444,6.3,-0.5,0.1,2.118736743927002,0.49174510180411124,0.2510166588915047,0.9408904542459839
445,1.4,2.1,0.0,2.1187386512756348,0.7950687758211977,0.016691873682237235,0.4861153106077858
446,-0.1,0.4,0.0,2.1187427043914795,0.20943773799092225,0.9924732394111758,0.12132762393445018
447,0.6,0.5,0.0,2.118750810623169,0.3565392524641343,0.30528169234023406,0.9878422918387104
448,8.8,5.2,0.1,2.1187453269958496,0.40350983046368405,0.8853648841216866,0.3184647521050301
449,3.4,2.0,0.0,2.1187400817871094,0.08596152187044237,0.7069365487597519,0.7439803178342709
450,0.3,0.2,0.0,2.1187515258789062,0.44640889178742604,0.6506555207488756,0.16147325190140716
451,-3.2,2.1,-0.0,2.1187615394592285,0.148048475385681,0.4152581003338951,0.6111817511530716
452,-3.6,1.9,-0.0,2.1187562942504883,0.2502444238286181,0.1097332101618248,0.823745416159795
453,-4.0,0.4,-0.0,2.1152453422546387,0.8378317128277138,0.24003132391452364,0.8868899935718172
454,-3.8,0.9,-0.0,2.11033296585083,0.22946570094847452,0.8178560843042052,0.22281782217684576
455,-2.1,-3.3,-0.0,2.1079888343811035,0.5039593061724067,0.3876581678855109,0.6064258995655493
456,-0.8,-1.1,-0.0,2.106863498687744,0.11735055823036067,0.9128059755440343,0.017921154571519438
457,-1.4,-0.9,-0.0,2.1063623428344727,0.37771150723691027,0.3955319416403895,0.4673260388286944
458,-5.6,-3.6,-0.1,2.106161117553711,0.4654073853231131,0.1098371780484827,0.1100671854994778
459,-7.8,-1.4,-0.1,2.1060731410980225,0.8792456771700126,0.6997024290452292,0.46844862499584516
460,-5.9,-0.3,-0.1,2.1093788146972656,0.7576987072034814,0.8455053346802636,0.13821651411305524
461,-5.6,-1.7,-0.1,2.118908405303955,0.9039726022134426,0.19457157227488753,0.6333230400514759
462,-2.1,-3.5,-0.0,2.1315670013427734,0.5476502137279442,0.43131617737486494,0.5242413290619717
463,-3.5,-3.2,-0.0,2.145836353302002,0.38766643446831184,0.23946957676047465,0.16214985152268058
464,-2.5,-2.1,-0.0,2.15625262260437,0.6037814023749423,0.12178477014489553,0.8787675223856453
465,-3.5,-2.6,-0.0,2.161393404006958,0.2709015621060602,0.11076833818252274,0.07420856709493928
466,-0.9,-0.7,-0.0,2.163926601409912,0.4943599901458593,0.23968754356983168,0.6329582837825133
467,-0.5,-0.4,-0.0,2.1650919914245605,0.12172499250444957,0.8997052813473188,0.5178609991925904
468,-4.5,-3.3,-0.1,2.168787956237793,0.7957290895112035,0.677715202037791,0.15479114467125688
469,-6.8,-5.0,-0.1,2.177788496017456,0.9918800773930728,0.6711417976212447,0.31970319152107163
470,-5.8,-4.3,-0.1,2.1889448165893555,0.035837311210498046,0.28671199210629095,0.23872293114040377
471,-2.6,-1.9,-0.1,2.197009325027466,0.29126811030917243,0.1590020248825148,0.4470249945621687
472,-0.8,-0.6,0.0,2.200692653656006,0.09045964470163614,0.290046715544646,0.31380085101648747
473,2.9,-2.0,0.0,2.2023651599884033,0.9699154517994351,0.7501833505421213,0.4018555368981519
474,2.9,-0.6,0.1,2.203124761581421,0.05432888736064434,0.033656712712155756,0.6337825891695064
475,-0.1,-1.3,-0.0,2.2034692764282227,0.04353460177163171,0.8230901071722986,0.09676591090702791
476,-0.6,-1.9,-0.1,2.2036197185516357,0.9324792522008053,0.36922908224219686,0.5772851432981291
477,-0.1,-1.4,0.0,2.2036890983581543,0.08691388106662556,0.6801948662606788,0.13560878084305583
478,1.1,-0.5,0.0,2.2037487030029297,0.37315710896046905,0.3319527545157891,0.6123007647409194
479,3.7,-2.7,0.1,2.203674077987671,0.33003565543186286,0.6374530535953484,0.9485819051773
480,4.0,-1.3,-0.0,2.203603506088257,0.14643552916158264,0.40844560474368063,0.7348990832642629
481,0.1,-2.0,-0.0,2.2035794258117676,0.28182874561609284,0.8449005790637912,0.8774174388804138
482,-0.0,-2.0,-0.0,2.2002177238464355,0.7433938259066702,0.17337618373699015,0.5316715316580235
483,0.5,-1.9,-0.0,2.1921744346618652,0.4584580607723774,0.8613174790548214,0.8183540118395569
484,-1.1,2.8,0.0,2.183044672012329,0.39102113609705635,0.20381949080617956,0.6159245928665861
485,-0.9,1.8,0.0,2.1737120151519775,0.6301344226557222,0.7308046387954727,0.8786631173817792
486,-0.2,0.9,0.0,2.164388418197632,0.6451187533573339,0.5067390334789731,0.7361994787186553
487,10.6,5.9,0.1,2.155059337615967,0.18106520035291274,0.6580093856551865,0.14169492176192766
488,8.5,4.6,0.1,2.1424343585968018,0.39648846809723404,0.42266120226349313,0.591989435512569
489,5.3,2.8,0.1,2.1248936653137207,0.8780763368842267,0.06099580249787673,0.7705004085006454
490,4.0,2.1,0.0,2.1066579818725586,0.788812751234582,0.25376431675061617,0.19596454874014702
491,4.2,2.2,0.0,2.087451457977295,0.6830551675811196,0.9058712015406147,0.0709979540089225
492,4.3,2.3,0.1,2.0693395137786865,0.23967788307480098,0.4800571469424124,0.7564247132389303
493,4.2,2.2,0.0,2.0546839237213135,0.5690822626191407,0.5229152082605966,0.5644039782842101
494,4.2,2.2,0.0,2.0492045879364014,0.0973963944569799,0.561819704308486,0.3542771399046084
495,4.2,2.2,0.0,2.046168327331543,0.43275842642752016,0.1757667338808645,0.1856108732516698
496,4.3,2.2,0.1,2.0446548461914062,0.9833873181086131,0.6539258461714142,0.6660810847443409
497,4.3,2.2,0.0,2.0441641807556152,0.708172483358129,0.635645979849111,0.03656824263961178
498,-1.0,-0.5,-0.0,2.044248342514038,0.5993090095234745,0.5937491464829537,0.9552933719630026
499,1.0,-3.3,-0.0,2.043612480163574,0.13282654407796468,0.4743837246204846,0.9199512354635434
500,8.2,0.0,0.1,2.04396915435791,0.3729112588761557,0.9836227422712311,0.6971142304307039
501,3.5,3.6,0.0,2.0436630249023438,0.004716482420361823,0.3557158863462727,0.6427417875370841
502,0.3,0.7,0.0,2.0441789627075195,0.530299697225335,0.9522647321264306,0.7581620717398591
503,-1.1,-0.3,-0.0,2.043790340423584,0.09066257755316598,0.21565521809564236,0.6354055358629219
504,-1.8,-0.8,-0.0,2.044161796569824,0.9014758340607175,0.15034954507561904,0.9006866868434248
505,-2.3,-1.1,-0.0,2.0437772274017334,0.39306173314376025,0.28001416426797665,0.4475771093027626
506,-2.6,-1.3,-0.0,2.044154167175293,0.13139624482906953,0.6830114786886826,0.019955670899273747
507,-2.8,-1.4,-0.0,2.043867826461792,0.12073759666406025,0.7453660238428625,0.7593859834677797
508,-1.6,-0.8,-0.0,2.0411133766174316,0.3780425651722791,0.09222803993384643,0.5130447249240293
509,-1.4,-0.7,-0.0,2.031522750854492,0.22779998502489396,0.6495497011310745,0.4988808671496029
510,-5.6,-2.7,-0.1,2.023843765258789,0.5431053246459153,0.8817732470428848,0.3866885378303434
511,-9.0,-4.3,-0.1,2.0199270248413086,0.32432549589264015,0.3087488834115203,0.1501375907682556
512,-7.6,-3.6,-0.1,2.01861572265625,0.9806250113234198,0.7046296882240026,0.6896212180311987
513,-6.6,-3.2,-0.1,2.017277479171753,0.5274863428437246,0.43064344623092454,0.6983130712112059
514,-18.8,-9.0,-0.2,2.0172829627990723,0.9197424034707292,0.22753514241849693,0.5735790948695472
515,-22.4,-10.7,-0.3,2.0165932178497314,0.17686608466115905,0.5532402441901695,0.25895633304656274
516,-20.4,-9.8,-0.2,2.0169408321380615,0.2518450411691091,0.11761170838378998,0.4162482856391657
517,-20.3,-9.5,-0.2,2.0163402557373047,0.5652922211268522,0.46141665788982766,0.05600500935440711
518,1.1,0.0,0.0,2.0167343616485596,0.4992051666576811,0.24432218518705684,0.2547291159899432
519,0.2,-0.1,0.0,2.016239643096924,0.27362243357044835,0.47605138501543875,0.03960198643363633
520,-0.2,-0.2,0.0,2.016486167907715,0.7325453490938885,0.8761816958044037,0.02439997361293922
521,-1.2,-0.6,-0.0,2.016068696975708,0.5879181168539553,0.26919443155462797,0.8313257743354185
522,-0.1,-0.1,-0.0,2.016538143157959,0.9043284325602989,0.3276417005729041,0.47236067860468167
523,1.0,0.5,0.0,2.0152976512908936,0.1045227499120942,0.27511451584568347,0.47569565980370454
524,1.7,0.8,0.0,2.01365065574646,0.8700093953918558,0.850020455391088,0.5030820206352629
525,2.6,1.2,0.0,2.0101430416107178,0.19137923976899196,0.004206396046510075,0.7605177801432675
526,2.1,3.1,0.0,2.005765438079834,0.1293726678656737,0.7070770645122184,0.6206303318039901
527,3.0,2.7,0.0,2.0039291381835938,0.3899271744459659,0.4893554679029618,0.3182416634964831
528,3.6,2.5,0.0,2.0037505626678467,0.24859414334340746,0.1169535490170227,0.7647757169136994
529,3.9,2.7,0.0,2.0037286281585693,0.9658350207806642,0.7667033365510816,0.8385844732210984
530,4.1,2.8,0.0,2.0037217140197754,0.06671034146479216,0.08917458625445374,0.9634714433513502
531,4.4,3.1,0.1,2.0037176609039307,0.2874643291035365,0.7785976117145467,0.01065803548076294
532,2.3,5.1,0.0,2.0037121772766113,0.3915640151527918,0.3665424677718645,0.0995134945512478
533,2.7,4.3,0.0,2.0037074089050293,0.8027936513339559,0.7745717275712627,0.6561128761156824
534,6.1,-1.0,0.0,2.003704071044922,0.10184497766468537,0.7740616486916931,0.7780340348037791
535,5.1,0.5,0.0,2.005751132965088,0.4216348030277708,0.9877497903630427,0.36484913230280114
536,4.4,1.6,0.0,2.0104820728302,0.563551770107301,0.428436012175746,0.18609729140211073
537,4.2,1.9,0.0,2.0159707069396973,0.5906151050018706,0.4286822594453482,0.8855431058610511
538,4.1,2.1,0.1,2.0219507217407227,0.46570515888869324,0.121286872849804,0.733603016617155
539,1.3,0.6,-0.0,2.0283658504486084,0.7506812587584649,0.4811473752123303,0.6167316120203485
540,-0.4,-0.3,-0.0,2.0352649688720703,0.015946692239375726,0.31703405530214046,0.9275918925077797
541,-0.3,-0.2,-0.0,2.045400619506836,0.7121867997221658,0.2634550076903558,0.3880700162174019
542,0.4,0.2,0.0,2.0596559047698975,0.9022985157627809,0.49803097397497054,0.11673067184206898
543,-0.5,-0.3,-0.0,2.0695931911468506,0.25338274879322276,0.6651230802924725,0.14295506388843726
544,3.5,1.9,0.0,2.072019577026367,0.5431466253720098,0.8178583295241333,0.9817063888625485
545,9.2,5.0,0.1,2.0725584030151367,0.26045743806152066,0.14982869216697292,0.8217885621693635
546,5.0,2.7,0.1,2.0726945400238037,0.8306755343250471,0.2817049316166035,0.6761175479022424
547,6.1,-0.3,0.0,2.0727410316467285,0.12984064690864938,0.5883454929198789,0.20087703842221827
548,4.4,3.6,0.1,2.0727529525756836,0.7581546172591892,0.1165674832102731,0.9686474016315432
549,4.2,2.8,0.1,2.0728237628936768,0.7210065832942025,0.989112989014677,0.2636133322365096
550,4.7,2.7,0.0,2.072824478149414,0.5546896791580596,0.11928081763726395,0.3250131781026738
551,4.3,2.4,0.0,2.072826385498047,0.6498640645904123,0.6256269742530243,0.23950716939203098
552,4.7,2.5,0.0,2.0728280544281006,0.13305526430867787,0.6281803783504017,0.038251818632469514
553,4.2,2.3,0.0,2.072829246520996,0.613922885588283,0.6672653190866816,0.2915174152760941
554,3.4,1.8,0.0,2.0728278160095215,0.6139441698884284,0.42701552788090436,0.3092690376123174
555,-0.4,-0.2,-0.0,2.072829246520996,0.880481884232316,0.29139271984478365,0.6359280608789735
556,0.1,0.1,0.0,2.0697057247161865,0.4871460327162014,0.08291699091927729,0.3163580690125818
557,8.8,4.7,0.1,2.0654568672180176,0.3020674213704503,0.9811207445285227,0.52698474424295
558,3.8,6.8,0.1,2.0637094974517822,0.48766191405503234,0.5669218879816439,0.9922985301237192
559,2.7,0.1,0.0,2.062997579574585,0.12123300664884573,0.17901723600053387,0.7634146094269775
560,0.0,-0.4,-0.0,2.0626842975616455,0.5711777634512801,0.2679625647767251,0.8032795345585252
561,-1.6,-0.9,-0.0,2.0625381469726562,0.890539941619598,0.24559210201388715,0.7317781539944873
562,-1.7,-0.9,-0.0,2.062487840652466,0.9556453367073663,0.49889558108226006,0.20436645393281416
563,-2.8,-1.5,-0.0,2.062466621398926,0.5772260476270047,0.08735028002675904,0.09067026293440505
564,-2.4,-1.3,-0.0,2.0624563694000244,0.14729923427127867,0.873373670312324,0.03538865074667974
565,-2.1,-1.1,-0.0,2.0624518394470215,0.18860422775336194,0.3347600860664105,0.3715958260858425
566,-1.2,-0.6,-0.0,2.0624520778656006,0.7498187659642106,0.9291991073773369,0.7719320548596089
567,-6.5,-3.6,-0.1,2.066498279571533,0.5040700538586642,0.818969874499161,0.381765347170013
568,-5.6,-3.1,-0.1,2.0719425678253174,0.8203863567218149,0.7549117007321787,0.7871937417664635
569,-4.8,-2.6,-0.1,2.074495553970337,0.48969045193371064,0.29401450215364855,0.2275560537048047
570,-2.3,-1.3,-0.0,2.075772285461426,0.431852368762486,0.3682311386977455,0.5810509724684666
571,-1.9,-1.1,-0.0,2.0764122009277344,0.7992433748409976,0.013529469911806813,0.8077633169301535
572,-0.1,-0.0,-0.0,2.076735019683838,0.6912305365966581,0.5945314782032161,0.680222693892812
573,0.3,0.1,0.0,2.076899290084839,0.7108935792933895,0.15472163347154388,0.6081746027104422
574,1.7,0.9,0.0,2.0769829750061035,0.548054327620694,0.12909501418610392,0.8018773672128163
575,1.8,1.0,0.0,2.077026128768921,0.14411076898929287,0.710298709224864,0.32672840499820144
576,1.1,4.6,0.0,2.077047109603882,0.2721690755635,0.03599947502654022,0.24037344078726441
577,3.5,0.7,0.0,2.077057361602783,0.44650840635384814,0.12214841560398315,0.1043210628843283
578,3.9,1.8,0.0,2.0770609378814697,0.8873016638303276,0.06404909892342736,0.6679520288637305
579,3.5,1.9,0.0,2.0770630836486816,0.9003616246041889,0.18267557841779725,0.8533502664294742
580,4.1,2.3,0.0,2.0770626068115234,0.34237738094718506,0.3248349630851177,0.8032275697374017
581,-0.5,-0.3,-0.0,2.0770628452301025,0.8772528519317208,0.6548390409449711,0.7807779519278
582,-1.3,-0.7,-0.0,2.0770633220672607,0.8608142081231431,0.34976948307946987,0.448805732434579
583,3.4,2.0,0.0,2.0770621299743652,0.9405077113194201,0.21265385132765124,0.9045675322881769
584,0.9,5.0,0.0,2.077061891555786,0.9890913635376583,0.23035421128581612,0.0191278109244033
585,0.7,-0.8,0.0,2.080409049987793,0.37995676179163995,0.3378740238354234,0.6044530247351741
586,-0.4,-0.7,-0.0,2.085069179534912,0.029614180794554024,0.2818540003753899,0.17521658354124003
587,-1.9,-1.2,-0.0,2.0871739387512207,0.49088565025485587,0.13101891287635814,0.07267660109647567
588,-1.8,-1.1,-0.0,2.088118553161621,0.10147903432542105,0.27661310835746933,0.9336813339538185
589,-2.8,-1.6,-0.0,2.0885400772094727,0.9916863423151737,0.4056220970890433,0.5847776513414914
590,-2.3,-1.3,-0.0,2.088733196258545,0.11950695563818947,0.7306110065977818,0.9877964202038125
591,-3.7,1.7,-0.0,2.088829278945923,0.5427473280593678,0.7277443530063751,0.5300073975316583
592,0.5,-0.7,-0.0,2.0888774394989014,0.9065670019537768,0.3734047368513287,0.8845066876451221
593,-2.1,-1.7,-0.0,2.0926737785339355,0.955152472011253,0.3724530331192105,0.8856466839963574
594,-4.6,-2.9,-0.1,2.0979204177856445,0.7655846443771794,0.9107284927741623,0.7228931970671818
595,-3.4,-2.1,-0.0,2.1005263328552246,0.9761800116038457,0.036276835977011146,0.7421394460892862
596,-1.2,-0.7,-0.0,2.101818084716797,0.8596394423714979,0.3439152540417799,0.7449358102100306
597,-0.8,-0.5,-0.0,2.1024608612060547,0.7008980670244955,0.6548283274663611,0.799975949134577
598,0.8,0.5,0.0,2.102781295776367,0.24214115239467715,0.273359103804935,0.030031199829195665
599,1.0,0.6,0.0,2.102942943572998,0.8220490018785497,0.563441226870418,0.38671026821544985
600,2.3,1.4,0.0,2.10622501373291,0.12578930051217285,0.6847560468283547,0.11134121579786838
601,2.4,1.4,0.0,2.110969066619873,0.44964939966177275,0.5480575832974649,0.17733298992750368
602,3.3,2.0,0.0,2.1132278442382812,0.9899326070445149,0.37375157533174486,0.34963054319673526
603,3.2,1.9,0.0,2.1142146587371826,0.34859894949539205,0.8432591337208287,0.6625806013996497
604,3.9,2.3,0.0,2.114673614501953,0.24374447005492605,0.29640433875632577,0.45881986547536513
605,2.8,1.7,0.0,2.114891767501831,0.5142946028945333,0.5685417696350639,0.15559909620179446
606,-0.9,3.7,0.0,2.114993095397949,0.12348015704600368,0.6767038351866921,0.8580182513749478
607,-0.4,-1.4,-0.0,2.1150424480438232,0.3468997489530209,0.08508736503842818,0.24524024261280808
608,-1.3,-1.3,-0.0,2.115062713623047,0.4842595634964114,0.9651517375410186,0.3110414863191615
609,-2.9,-1.9,-0.0,2.115072727203369,0.26919125291231116,0.37180605520154986,0.629523275198983
610,-2.4,-1.5,-0.0,2.1150779724121094,0.9519285143626384,0.13466238963079558,0.8087781870683535
611,-3.1,-1.9,-0.0,2.1150808334350586,0.518725113026041,0.19765131275254133,0.8059297617542923
612,-2.0,-1.2,-0.0,2.1150827407836914,0.40226563483403155,0.8389205238690243,0.34178409025714307
613,-3.6,1.5,-0.0,2.115083694458008,0.5445600703397397,0.904498829476707,0.1676492139725031
614,0.4,-0.8,-0.0,2.1150872707366943,0.37332627284929343,0.8887713042592362,0.6893920247142704
615,0.5,-0.1,0.0,2.1184892654418945,0.6315615427177383,0.6284374394606324,0.9360621939821856
616,1.7,1.0,0.0,2.12337327003479,0.4165412707262257,0.9989312139842099,0.01383620164618482
617,1.9,1.2,0.0,2.125795841217041,0.12285615597010457,0.47429163461842994,0.8329669997920331
618,2.9,1.8,0.0,2.1269898414611816,0.541502614802138,0.3710878228513005,0.9142342924834862
619,2.8,1.8,0.0,2.1275734901428223,0.05220687701457005,0.07054161491561228,0.7252749456739641
620,3.2,2.0,0.0,2.1278557777404785,0.2021381924726472,0.7765837549234493,0.48262944176790756
621,0.9,0.6,0.0,2.127993106842041,0.2985681240533409,0.08795372274617153,0.8692647764312759
622,-0.6,-0.4,-0.0,2.1312055587768555,0.7369867287184181,0.5778940291885682,0.020046579639970585
623,-2.1,-1.4,-0.0,2.1357741355895996,0.4563061979524421,0.32889723427801065,0.3102998696713818
624,-2.2,-1.4,-0.0,2.137913703918457,0.016462333208058677,0.305188568820036,0.201759653228182
625,-3.0,-1.9,-0.0,2.1388978958129883,0.26449790631267556,0.9658095489096956,0.004670459363032564
626,-1.7,-1.1,-0.0,2.139346122741699,0.08528367806519122,0.9961964314594203,0.6954308518733223
627,-1.6,-1.0,-0.0,2.1395490169525146,0.32001665388985623,0.5949896715677025,0.5610518948938745
628,0.1,0.1,0.0,2.1396403312683105,0.4151410454540909,0.5004303551285965,0.4402030868802198
629,0.5,0.3,0.0,2.139681577682495,0.7362762916985695,0.583399245968902,0.5712283278746626
630,1.8,1.1,0.0,2.1397018432617188,0.6981204167146329,0.8626562177306654,0.6619657973237584
631,1.9,1.2,0.0,2.139711380004883,0.09410074953896697,0.24511404440545204,0.07105974493887413
632,3.0,1.9,0.0,2.139716863632202,0.7745730415798127,0.9343158032943523,0.5199492175449753
633,2.4,1.5,0.0,2.139718532562256,0.8632189906352392,0.16720377233664263,0.36504974984154703
634,1.1,0.7,0.0,2.1397180557250977,0.9305256816252123,0.1478247182961414,0.2575384477603673
635,-1.1,-0.7,-0.0,2.1397175788879395,0.23206095883240385,0.6388621441427612,0.23652772727092441
636,-1.6,-1.0,-0.0,2.139716386795044,0.8229259558856129,0.5986595920897209,0.8915369902111107
637,-2.9,-1.8,-0.0,2.1397156715393066,0.8734075625468156,0.5532437191104727,0.4205116882059563
638,-2.2,-1.4,-0.0,2.1397156715393066,0.04133858897871723,0.2458417795899771,0.885912171713791
639,-2.4,-1.6,-0.0,2.1397156715393066,0.7720170353740169,0.9638349356353791,0.10515174686862361
640,-0.9,-0.6,-0.0,2.139716148376465,0.3902375339354046,0.5768012144735398,0.5493414065845538
641,-0.5,-0.3,-0.0,2.139716386795044,0.35104880991803533,0.5640321885843055,0.3225247495087965
642,1.0,0.6,0.0,2.139719009399414,0.8608455096101632,0.5673862324171448,0.666582675074561
643,1.3,0.8,0.0,2.1397202014923096,0.7025415806030672,0.2320708330569795,0.7148824156196036
644,2.4,1.6,0.0,2.1397218704223633,0.09132604387579757,0.8563341691710249,0.14334080373552016
645,2.5,1.6,0.0,2.139721393585205,0.2193935860277818,0.8005733940063328,0.5235309991241173
646,3.4,2.1,0.0,2.1397194862365723,0.44127040072514345,0.5941349047046097,0.043319636037938425
647,2.5,1.6,0.0,2.1397175788879395,0.5556451550998884,0.15353463289477187,0.33021252715517047
648,1.0,0.6,0.0,2.139716148376465,0.6929608290881831,0.0398717506649644,0.2243753376326787
649,-1.1,-0.7,-0.0,2.139716148376465,0.7224796692178712,0.2207708630424171,0.8664093555203327
650,-1.6,-1.0,-0.0,2.1397151947021484,0.31379639117876823,0.6599125444546878,0.7002836227716035
651,-3.0,-1.9,-0.0,2.1397156715393066,0.6964459555463236,0.39607007316319365,0.3288961612295367
652,-2.5,-1.6,-0.0,2.1397147178649902,0.3370889760429929,0.7314184972947265,0.10677280306216275
653,-3.2,-2.0,-0.0,2.1397151947021484,0.4017697837860541,0.738787711011277,0.026702014333517154
654,-2.0,-1.3,-0.0,2.1397159099578857,0.5939348213964922,0.9663949350055061,0.05577662580876974
655,-1.8,-1.1,-0.0,2.1397180557250977,0.6528094113094061,0.8100887244998338,0.02537939292048852
656,-0.1,-0.0,-0.0,2.1397204399108887,0.9540382868563304,0.646788448061957,0.40518888842756573
657,0.3,0.2,0.0,2.1397218704223633,0.7340946726101211,0.8672616221173175,0.7068058477339101
658,1.7,1.1,0.0,2.1397223472595215,0.7494430661821199,0.2058889780073051,0.18618181420250257
659,1.8,1.2,0.0,2.1397225856781006,0.23326483915767804,0.8773061857972551,0.5143745457192219
660,2.9,1.8,0.0,2.139720916748047,0.5383430365893072,0.8995370892981968,0.8921843043248041
661,2.8,1.8,0.0,2.1397197246551514,0.48524631292184395,0.5277049253055183,0.9443616997544556
662,3.0,1.9,0.0,2.1397175788879395,0.5339339911649733,0.12210606036188465,0.8875820080462761
663,0.8,0.5,0.0,2.1397156715393066,0.4587836171033254,0.5561975693292407,0.8337255108832912
664,-0.6,-0.4,-0.0,2.139713764190674,0.9222875160013189,0.011635660787928326,0.12082241590866893
665,-2.1,-1.4,-0.0,2.1397130489349365,0.6044900617021564,0.41386349125539235,0.45937246875366333
666,-2.2,-1.4,-0.0,2.1397128105163574,0.3294291225141166,0.7193475661136078,0.9756009378216904
667,-3.0,-1.9,-0.0,2.139714002609253,0.2726397322848799,0.23748992378938116,0.2541473640866777
668,-1.7,-1.1,-0.0,2.139714479446411,0.5171396897230917,0.8196876381668652,0.9544828401506805
669,-1.6,-1.0,-0.0,2.139716386795044,0.5023605108617581,0.4091051224526716,0.8939955898753923
670,0.1,0.1,0.0,2.1397171020507812,0.5045813214280969,0.5892862394511279,0.696951330312193
671,0.5,0.3,-0.0,2.1397194862365723,0.13498309030126887,0.11248525598249581,0.8059892604267136
672,1.8,1.1,0.0,2.1397223472595215,0.0528659701218307,0.630228768788518,0.16108877110000952
673,1.9,1.2,0.0,2.1397228240966797,0.6421139247040755,0.5653257051038914,0.5629357935728199
674,3.0,1.9,0.0,2.1397223472595215,0.8403686814928163,0.9386904733460315,0.3014486435126098
675,2.4,1.5,0.0,2.139721393585205,0.6486155190715417,0.9661242743303887,0.04405706128965814
676,1.2,0.7,0.0,2.1397197246551514,0.08072965474213334,0.8829026953579162,0.7081667310706798
677,-1.1,-0.7,-0.0,2.1397182941436768,0.7037079909998203,0.4819548727953782,0.1710012161632949
678,-1.6,-1.0,-0.0,2.139716863632202,0.7576780619305323,0.6873736117135317,0.6033610214131511
679,-2.9,-1.8,-0.0,2.139716148376465,0.01829121890156804,0.3717772990828846,0.6812535046583378
680,-2.2,-1.4,-0.0,2.139716148376465,0.28282558040274375,0.22533019651546393,0.021922704981832464
681,-2.4,-1.6,-0.0,2.139716148376465,0.7500294733226879,0.834032279274485,0.3754980959470565
682,-0.9,-0.6,-0.0,2.1397171020507812,0.6668372094385601,0.11319790741504576,0.8444483564212788
683,-0.5,-0.3,-0.0,2.139718532562256,0.19793396541107033,0.3866254194282611,0.8845541062857807
684,1.0,0.6,0.0,2.1397199630737305,0.4001946896963564,0.4098434957158723,0.02588427859643172
685,1.3,0.8,0.0,2.1397218704223633,0.19848456405059733,0.2900622068422981,0.3900828048248236
686,2.4,1.6,0.0,2.1397218704223633,0.8487581391148055,0.3982704800341955,0.5064119696269833
687,2.5,1.6,0.0,2.139720916748047,0.5520858292785864,0.5949155654286179,0.03608055305399149
688,3.4,2.1,0.0,2.139720916748047,0.17552793855826032,0.24451037808662157,0.5410342747324242
689,2.5,1.6,0.0,2.1397194862365723,0.4975296995270827,0.5146941857494712,0.5912687495625476
690,1.0,0.6,0.0,2.1397175788879395,0.6582267548673536,0.5019500044759815,0.4317713160999733
691,-1.1,-0.7,-0.0,2.1397156715393066,0.8610895754044365,0.7310176259511343,0.809550585398021
692,-1.6,-1.0,-0.0,2.1397147178649902,0.04646979794840056,0.8843569302567376,0.8245765220880459
693,-2.9,-1.9,-0.0,2.1397147178649902,0.32422980887002295,0.7465250386715208,0.6917535219420947
694,-2.5,-1.6,-0.0,2.1397156715393066,0.513687479698133,0.966551478266604,0.7846845459768786
695,-3.2,-2.0,-0.0,2.1397159099578857,0.41811027330180994,0.8010791377398775,0.5235285024524592
696,-2.0,-1.3,-0.0,2.1397173404693604,0.12165407110837945,0.6700746720184341,0.738153571750591
697,-1.8,-1.1,-0.0,2.1397199630737305,0.36115870443293463,0.9445970306582838,0.9923036572493715
698,-0.1,-0.0,-0.0,2.1397223472595215,0.3715903685308378,0.09209018898678412,0.034561184694278824
699,0.3,0.2,0.0,2.1397228240966797,0.7430254540734043,0.9501359318366164,0.49019655814824337
700,1.7,1.1,0.0,2.1397242546081543,0.766649887201852,0.11904537952556893,0.4267685815718646
701,1.8,1.2,0.0,2.139723539352417,0.09388067240730258,0.7946132992444245,0.7557521619767219
702,2.9,1.8,0.0,2.139723062515259,0.21118178497609663,0.9596309819426224,0.7180925167832922
703,2.8,1.8,0.0,2.139721155166626,0.8502759131466451,0.6718569989095313,0.266810834542603
704,3.0,1.9,0.0,2.1397194862365723,0.7239076512112841,0.9891444888143835,0.7956420764140629
705,0.8,0.5,0.0,2.1397175788879395,0.9174579061834,0.6409987241338375,0.7093774479007742
706,-0.6,-0.4,-0.0,2.139716863632202,0.8414101401162177,0.6236093944470271,0.43281295552425403
707,-2.1,-1.4,-0.0,2.1397154331207275,0.4574816813468796,0.6964632098704505,0.8099657673386927
