Frame,Accelerometer X,Accelerometer y,Accelerometer Z,Compass,Gyroscope X,Gyroscope Y,Gyroscope Z
0,-0.0,0.0,-0.6,1.4069432020187378,0.757150493270194,0.7237279895789401,0.755513270099544
1,-0.0,-0.0,-0.6,1.4069427251815796,0.48682289497593123,0.966988896874046,0.06559001396292485
2,-0.0,-0.0,-0.6,1.4069427251815796,0.43861924908917005,0.46303749697844776,0.8035137710907388
3,-0.0,-0.0,-0.5,1.4069427251815796,0.4210869504560668,0.8738464840115594,0.025845577411843235
4,0.0,0.0,-0.4,1.4069427251815796,0.649525010346092,0.8624366352210634,0.6993883954676244
5,0.0,0.0,-0.3,1.40694260597229,0.9992430418264532,0.061840989181042305,0.05908637998445465
6,-0.0,-0.0,-0.2,1.4069427251815796,0.8468302387654424,0.758739620432396,0.24652353621313816
7,-0.0,-0.0,-0.2,1.4069427251815796,0.7818242803050702,0.18061108059925945,0.039283443202656865
8,0.0,0.0,-0.2,1.4069427251815796,0.4222789687814569,0.10845449714831046,0.5433284798255721
9,-0.0,-0.0,-0.1,1.4069427251815796,0.5338701923379229,0.8065694642816793,0.15411640566539142
10,0.0,0.0,-0.1,1.4069427251815796,0.9346360183258617,0.10152250603655188,0.2800956904442129
11,0.0,0.0,-0.1,1.4069427251815796,0.9192056727117232,0.36899474692114353,0.7398262237221842
12,-0.0,-0.0,-0.1,1.4069427251815796,0.7763237773608174,0.7780956589531146,0.7551629390177517
13,-0.0,-0.0,-0.0,1.4069427251815796,0.5835087957447517,0.33730817021995496,0.3249940720760054
14,0.0,0.0,-0.0,1.4069427251815796,0.02770267078515154,0.2329956787619849,0.8743753968438073
15,-0.0,0.0,-0.1,1.4069427251815796,0.17915343676401296,0.7785353038276795,0.6588331132874256
16,0.0,0.0,0.0,1.4069427251815796,0.7115885098743522,0.3464770721322663,0.7778904311526272
17,0.0,0.0,0.0,1.4069427251815796,0.37960151890437366,0.16952646122927273,0.7253802150889938
18,0.0,0.0,0.0,1.4069427251815796,0.5104186109850122,0.032182361643672164,0.835464663878075
19,0.0,0.0,0.0,1.4069427251815796,0.05163812187940553,0.9873358991351142,0.8663999669455735
20,-0.0,-0.0,-0.0,1.4069427251815796,0.7427823116113407,0.7915269495508648,0.820670449563383
21,0.0,0.0,0.0,1.4069427251815796,0.017657494954770758,0.8924470437095015,0.7575682536853228
22,0.0,-0.0,0.0,1.4069427251815796,0.25576723118718003,0.8956703905941314,0.8252383697506265
23,-0.0,0.0,0.0,1.4069427251815796,0.17508092787828033,0.5008434223629447,0.6089143381604749
24,-0.0,-0.0,-0.0,1.4069427251815796,0.015572273045743601,0.3740259035573569,0.09686077853678277
25,0.0,0.0,-0.0,1.4069427251815796,0.3706624273582675,0.40112215796497475,0.948517257360036
26,-0.0,-0.0,-0.0,1.4069427251815796,0.7400619133167498,0.7436459724224875,0.24689496435890967
27,0.0,0.0,-0.0,1.4069427251815796,0.02860697243715249,0.268017049709276,0.7539296411697447
28,-0.0,0.0,-0.0,1.4069427251815796,0.5527598044860196,0.9405088407934841,0.09631782254213284
29,0.0,-0.0,0.0,1.4069427251815796,0.7509073363074714,0.997272989730986,0.9648635770567624
30,0.0,-0.0,0.0,1.4069427251815796,0.6638309183159464,0.9209003166195369,0.3342790609563203
31,6.8,-1.1,-0.0,1.4069427251815796,0.18821233176474372,0.4122836118468761,0.48626271018714673
32,6.6,-1.1,-0.0,1.4069427251815796,0.01201860544331923,0.45114856016088056,0.8081694031714078
33,5.2,-0.9,0.0,1.4069427251815796,0.3602079949476986,0.6288440534728404,0.04069993409919037
34,2.4,-0.4,-0.0,1.4069427251815796,0.9630308945468677,0.5130842990273723,0.08036463598221322
35,3.4,-0.6,0.0,1.4069427251815796,0.005183537477446931,0.19949053548666196,0.816083782313932
36,2.4,-0.4,-0.0,1.4069427251815796,0.38480290274969076,0.9850979304512606,0.3930388097352704
37,3.0,-0.5,-0.0,1.4069427251815796,0.3701414479305176,0.2520965085267165,0.7208410279429784
38,2.4,-0.4,-0.0,1.4069427251815796,0.5077967152975658,0.311968646261677,0.7105648010664933
39,3.0,-0.5,-0.0,1.4069427251815796,0.6921672011504822,0.15290749245975022,0.6254295038658181
40,3.6,-0.6,0.0,1.4069410562515259,0.5314939646787413,0.3963837040221678,0.5409023534511239
41,3.9,-0.6,-0.0,1.406934142112732,0.09643314895490995,0.7587594016693907,0.2905043397619097
42,4.0,-0.7,-0.0,1.406860113143921,0.0323986000987726,0.756069873299529,0.9752941709444342
43,4.3,-0.7,-0.0,1.407029390335083,0.004816507650465485,0.7160362601416281,0.6029214525474997
44,4.6,-0.8,-0.0,1.4069548845291138,0.8670257082671351,0.2848130693053499,0.6213377741581662
45,4.8,-0.8,-0.0,1.4071840047836304,0.892405605849697,0.4615051603194965,0.7955073516106859
46,5.1,-0.8,-0.0,1.4072813987731934,0.6603579082113935,0.6823879885798467,0.9407200618798155
47,5.3,-0.9,-0.0,1.4072558879852295,0.019573846695786545,0.8605624812662233,0.41262121755438474
48,5.1,-0.8,0.0,1.4072803258895874,0.9755999091531049,0.7581300626997642,0.1811909459651686
49,4.8,-0.8,-0.0,1.407299518585205,0.5485605570426569,0.5116869383375569,0.42217034168884204
50,4.6,-0.8,-0.0,1.407278299331665,0.033195053948116726,0.25528305977840227,0.7036455977126188
51,4.6,-0.8,0.0,1.4072473049163818,0.997831864428693,0.9037359188986277,0.221840115399081
52,4.5,-0.7,-0.0,1.4072462320327759,0.26542954509795313,0.5128434833492818,0.5064264423512855
53,4.5,-0.7,0.0,1.4072362184524536,0.31414310742378637,0.9514122174321208,0.06905804463629728
54,4.5,-0.7,0.1,1.4072489738464355,0.7782835409772492,0.7336848959740171,0.629137046643945
55,1.1,-0.2,-0.0,1.4072319269180298,0.8730595679099864,0.727951287403179,0.6521163154197611
56,-1.0,0.2,-0.0,1.4072558879852295,0.8974762764281194,0.2776586273335734,0.9696611575670792
57,0.5,-0.1,-0.0,1.4072420597076416,0.9622786623402111,0.06080047157223312,0.2881210276631926
58,-0.2,0.0,-0.0,1.4072483777999878,0.9453245857309066,0.07003669143709002,0.22803522777276208
59,0.4,-0.1,0.0,1.4072489738464355,0.6588133525363927,0.1422688011919615,0.8720735462845306
60,3.6,-0.6,-0.0,1.4072505235671997,0.5264898717936476,0.03187075820673968,0.14343594316821884
61,13.0,-2.1,-0.0,1.4072515964508057,0.06298358893212319,0.07081896535937215,0.026173004176868297
62,5.5,-0.9,0.0,1.4072526693344116,0.7439427988395779,0.7644587684870364,0.3027024071615785
63,5.0,-0.8,-0.0,1.4072494506835938,0.7308433735907788,0.5028640297576817,0.17518373136374887
64,4.6,-0.8,0.0,1.4072723388671875,0.004429447392445218,0.21072973564594388,0.8515011872110738
65,5.1,-0.8,-0.0,1.4072701930999756,0.8619576551956231,0.08450387003245508,0.8657351470782726
66,4.6,-0.8,0.0,1.4072697162628174,0.5931759239735068,0.20772803307188592,0.8646565532328377
67,5.2,-0.9,0.0,1.4072691202163696,0.28292940652308884,0.25351399947445075,0.5688121072061864
68,4.7,-0.8,-0.0,1.4072675704956055,0.3193370178610949,0.029900353455015183,0.17918155945286351
69,5.2,-0.9,0.0,1.4072675704956055,0.8870764939285185,0.9496067144110238,0.7805141629614444
70,4.7,-0.8,-0.0,1.4072712659835815,0.23471801799232916,0.2674582450688283,0.3411113669961102
71,-0.6,0.1,0.0,1.4072750806808472,0.7296614655023161,0.17161284145999267,0.6915133192414539
72,-0.4,0.1,-0.0,1.4072781801223755,0.9372725244389858,0.8130007202010012,0.22565848385765852
73,7.7,-1.3,0.0,1.407277226448059,0.9615665989678391,0.13618329318952926,0.09626789095592825
74,3.8,-0.6,-0.0,1.4072813987731934,0.013135949689122794,0.2740059790955016,0.6671020151690418
75,0.3,-0.0,0.0,1.407288908958435,0.961724730259843,0.07653224750746668,0.01006500943083044
76,-1.4,0.2,-0.0,1.4072856903076172,0.6731876497512194,0.34035408672955914,0.6566949203099977
77,-1.6,0.3,0.0,1.4072846174240112,0.02529266950571618,0.8513220360931433,0.137328037776404
78,-2.9,0.5,-0.0,1.407293677330017,0.2791568392494782,0.14297240974422676,0.3613633163210057
79,-2.4,0.4,0.0,1.4072962999343872,0.8009160039107579,0.255775569519725,0.5447437370592886
80,-3.5,0.6,0.0,1.407297968864441,0.8379297218247825,0.060077456569043286,0.02740170806547637
81,-0.8,0.1,-0.0,1.4072985649108887,0.2982555741440397,0.10587203884822294,0.11404502618864965
82,-0.4,0.1,-0.0,1.407299518585205,0.16544907623124383,0.27760416309952174,0.15378732335726952
83,-3.4,0.6,-0.0,1.407304286956787,0.14472266758292462,0.7575127236994946,0.8404982527714869
84,-5.8,1.0,0.0,1.4073033332824707,0.68705266943426,0.5955370991867474,0.5204092546521073
85,-2.5,0.4,-0.0,1.4073033332824707,0.39618799196038346,0.5816085839972027,0.6802452376904107
86,-1.9,0.3,0.0,1.407302737236023,0.06391501982399361,0.6737738406733376,0.3011393717859947
87,0.1,-0.0,0.0,1.407301664352417,0.30729307853018606,0.5251728806476402,0.983063135615178
88,0.5,-0.1,-0.0,1.4073011875152588,0.9726554159709083,0.9099611787635654,0.9888497057765323
89,2.1,-0.3,-0.0,1.4072990417480469,0.26382045177365754,0.14913709044601742,0.9028354010827099
90,2.3,-0.4,0.0,1.4072973728179932,0.6347152114592488,0.31441851101867035,0.6961746304767154
91,3.5,-0.6,-0.0,1.407296895980835,0.6937253724685906,0.5310462860183548,0.6676194955546516
92,3.4,-0.6,-0.0,1.4072952270507812,0.7593360097109786,0.8860830821784829,0.39285490105445153
93,4.3,-0.7,-0.0,1.407292127609253,0.23136426222869422,0.04898072962294753,0.7531187893676287
94,3.3,-0.5,-0.0,1.407291054725647,0.6487697010239624,0.45475834356314293,0.33448161683694855
95,1.5,-0.2,-0.0,1.4072893857955933,0.7047787596043137,0.14149318216440498,0.747823947318895
96,-1.0,0.2,-0.0,1.4072893857955933,0.7756914958821506,0.11522461623359759,0.2142856404119885
97,-1.7,0.3,-0.0,1.407288908958435,0.12570821126195098,0.7029200791072483,0.013463749137760828
98,-3.3,0.5,-0.0,1.4072883129119873,0.2891468302497574,0.24955955659565288,0.7813635154737584
99,-2.6,0.4,-0.0,1.407289981842041,0.23898717801728042,0.8911070766737965,0.12952951302389926
100,-2.8,0.5,-0.0,1.4072915315628052,0.6000889664611269,0.029830116454809374,0.13207041171992684
101,-1.0,0.2,-0.0,1.4072926044464111,0.6316870661734565,0.520030873736194,0.7434567933072812
102,-0.5,0.1,-0.0,1.4072952270507812,0.9238065039680566,0.7880951319651535,0.4260412891649822
103,1.3,-0.2,-0.0,1.407296895980835,0.05310139040878925,0.17153602855127248,0.10174199346791413
104,1.6,-0.3,-0.0,1.407299518585205,0.8661481966466336,0.7984050927824322,0.17895712647460849
105,2.9,-0.5,0.0,1.407300591468811,0.7358026075343378,0.5213599711112751,0.05079429914794831
106,3.0,-0.5,-0.0,1.4073011875152588,0.926754659120893,0.25156578921476225,0.43351046296444373
107,3.2,-0.5,-0.0,1.4072990417480469,0.14328617547978995,0.7791351100444958,0.39707033879084774
108,0.5,-0.1,-0.0,1.4072973728179932,0.2733260026078209,0.7567789414736712,0.6950632126417274
109,-0.7,0.1,0.0,1.4072953462600708,0.9149710246706892,0.11994287382746971,0.7780357334270998
110,-2.5,0.4,0.0,1.407294750213623,0.40169726658934846,0.6963357777365826,0.4842740555095816
111,-2.6,0.4,-0.0,1.407293677330017,0.8042852384490268,0.4838822983419746,0.37197095432363403
112,-3.5,0.6,0.0,1.407293677330017,0.8326376646986936,0.4121655741185245,0.35724861753648307
113,-2.0,0.3,-0.0,1.4072926044464111,0.34244852666025594,0.7657455991018355,0.6042991660096394
114,-1.8,0.3,-0.0,1.4072942733764648,0.7183042764682284,0.975355058014747,0.23420662288047245
115,0.2,-0.0,-0.0,1.407295823097229,0.5576457186764049,0.6283852147625044,0.26854322197763536
116,0.6,-0.1,-0.0,1.407297968864441,0.27812853068749066,0.8807037172177814,0.3772971649557041
117,2.2,-0.4,-0.0,1.407299518585205,0.11551512309540746,0.7944143180515474,0.15033102694390676
118,2.4,-0.4,-0.0,1.4072990417480469,0.0515243639711106,0.9350761684904751,0.47439530511351247
119,3.5,-0.6,-0.0,1.4072990417480469,0.783492105209463,0.7904480042196723,0.32000936551151915
120,2.6,-0.4,-0.0,1.407297968864441,0.9876944314844004,0.4602426092678181,0.9611331258873396
121,1.1,-0.2,-0.0,1.407296895980835,0.9616260928079786,0.9602053361571047,0.9185852226643948
122,-1.2,0.2,0.0,1.407295823097229,0.06857860952623607,0.8666405845747109,0.036862086515414894
123,-1.8,0.3,0.0,1.407295823097229,0.8611429695360546,0.3543251028107467,0.7546079623375856
124,-3.4,0.6,0.0,1.4072952270507812,0.9398493078199123,0.7156668011048828,0.6372816549707572
125,-2.6,0.4,-0.0,1.4072942733764648,0.752166153496631,0.2683502907428711,0.5923855220428579
126,-2.8,0.5,-0.0,1.4072942733764648,0.514445334151628,0.42795582718157366,0.3449969661115738
127,-1.0,0.2,-0.0,1.4072953462600708,0.9748566601593344,0.5427846112523466,0.44815458560430643
128,-0.5,0.1,0.0,1.407296895980835,0.3845716848514351,0.9070860592367445,0.6042881943950726
129,1.3,-0.2,0.0,1.4072985649108887,0.134045598952918,0.1165335401470814,0.2526712675062227
130,1.6,-0.3,-0.0,1.407299518585205,0.6826981600096976,0.6725298611815799,0.1307734337462778
131,2.9,-0.5,-0.0,1.4073001146316528,0.5855133673714223,0.14283903381788654,0.8822240877277072
132,3.0,-0.5,-0.0,1.407299518585205,0.7859151617005825,0.8996820139176006,0.531783335594914
133,3.4,-0.6,-0.0,1.4072984457015991,0.29419084748158486,0.08684982140772513,0.011900406519749995
134,0.9,-0.1,-0.0,1.407297968864441,0.05491883045907697,0.7861048868371254,0.22777775740528872
135,-0.6,0.1,-0.0,1.407294750213623,0.9624121503419868,0.711608908460108,0.9917103856033024
136,-2.5,0.4,0.0,1.407294750213623,0.6411900461566549,0.07997310430450733,0.18762873385549672
137,-2.6,0.4,0.0,1.4072942733764648,0.9943160703663081,0.3762908058063428,0.0054757166050177775
138,-3.4,0.6,-0.0,1.407293677330017,0.9218085604365532,0.679049061599652,0.4501849423154831
139,-2.0,0.3,-0.0,1.407293677330017,0.6674117757607057,0.6892052155153761,0.5537923442562807
140,-1.8,0.3,0.0,1.4072952270507812,0.7326909739710182,0.5401721181997096,0.3702709740574468
141,0.2,-0.0,0.0,1.407296895980835,0.09126869109818703,0.6311591805549709,0.6980518814573425
142,0.6,-0.1,-0.0,1.407299518585205,0.5329232168859337,0.7704560112910035,0.475965802785302
143,2.2,-0.4,-0.0,1.407300591468811,0.4865387998330667,0.10951548362092456,0.7720070566089715
144,2.4,-0.4,-0.0,1.4073011875152588,0.27239043863015666,0.1903402799348881,0.275536032180542
145,3.5,-0.6,-0.0,1.4073011875152588,0.1712089625022205,0.7706556439288103,0.11830156882479281
146,2.7,-0.5,-0.0,1.407300591468811,0.06850363701833273,0.7399382996947167,0.8084867343184311
147,1.3,-0.2,-0.0,1.4072990417480469,0.7091269290828668,0.3529590709554732,0.39961172518929944
148,-1.2,0.2,0.0,1.407297968864441,0.05250507930079629,0.21845176164766789,0.12288285813225941
149,-1.8,0.3,-0.0,1.4072964191436768,0.765562839830528,0.6738583867955042,0.3816666499825132
150,-3.4,0.6,0.0,1.407295823097229,0.3495113089129138,0.33953291965672283,0.8778795617659753
151,-2.6,0.4,0.0,1.407294750213623,0.9034494695565298,0.6001250983608785,0.8555647132422334
152,-2.8,0.5,0.0,1.4072952270507812,0.7993450829400026,0.7033881081703681,0.3925414908618846
153,-1.0,0.2,0.0,1.407295823097229,0.2370006481140602,0.10437092113519586,0.7833878256410295
154,-0.5,0.1,0.0,1.4072973728179932,0.7133473916936421,0.24183614862115288,0.5950893941567417
155,1.3,-0.2,0.0,1.4072990417480469,0.060490615480458865,0.8994498335472484,0.5016474514942523
156,1.6,-0.3,-0.0,1.4073011875152588,0.8042589173634945,0.9290904082393855,0.8331468187866438
157,2.9,-0.5,-0.0,1.4073021411895752,0.3759519553161458,0.31374653842049904,0.6990667175649985
158,3.0,-0.5,-0.0,1.407301664352417,0.10509607358967943,0.9135260111452765,0.6126397781872421
159,3.5,-0.6,-0.0,1.4072999954223633,0.027033916542992142,0.6822850901998411,0.9936984013951412
160,1.0,-0.2,-0.0,1.407299518585205,0.9801542306292728,0.08848852032464971,0.27987305667675433
161,-0.6,0.1,-0.0,1.4072973728179932,0.9101877990546242,0.3629326464274494,0.32631690520537693
162,-2.5,0.4,0.0,1.407296895980835,0.5830872296023947,0.8329570353850343,0.5835140256536689
163,-2.6,0.4,0.0,1.4072964191436768,0.16577328828826265,0.3550606507983384,0.7615953880215258
164,-3.4,0.6,-0.0,1.407294750213623,0.4520764329509762,0.0025115523094142445,0.1562334032992584
165,-2.0,0.3,0.0,1.407294750213623,0.6980558874931937,0.9682851671191501,0.9845483288950332
166,-1.8,0.3,0.0,1.407294750213623,0.7589969199118995,0.0005848736696375534,0.3921948918102611
167,0.2,-0.0,0.0,1.4072973728179932,0.47243566001750315,0.8018401946304216,0.6535828042745095
168,0.6,-0.1,0.0,1.407297968864441,0.04376750510081395,0.158800827999937,0.35442522711009594
169,2.2,-0.4,-0.0,1.407299518585205,0.9082513075476416,0.6589712503283784,0.5589926794656083
170,2.4,-0.4,-0.0,1.4072999954223633,0.10330083299495552,0.4261965538452105,0.09420841359038212
171,3.5,-0.6,-0.0,1.407299518585205,0.3172422846360504,0.3881027974020361,0.47524179537014233
172,2.8,-0.5,-0.0,1.407299518585205,0.2988473278484548,0.702912677456996,0.7263744923955793
173,1.3,-0.2,-0.0,1.407297968864441,0.7486017467378683,0.07564688458366942,0.4098890582410708
174,-1.2,0.2,0.0,1.407296895980835,0.706742574299971,0.12693670081693453,0.7096544342004103
175,-1.8,0.3,-0.0,1.407295823097229,0.08393843560290226,0.0031107427561631873,0.6021251794665202
176,-3.4,0.6,0.0,1.407294750213623,0.520710633691638,0.3218436537842668,0.2286517150587004
177,-2.6,0.4,0.0,1.407294750213623,0.4216015176987705,0.38574121801759165,0.8985971602123518
178,-2.8,0.5,0.0,1.407294750213623,0.913569669236129,0.0707907818396405,0.05038311976265175
179,-1.0,0.2,-0.0,1.4072952270507812,0.47080775127759744,0.9512914606829707,0.8542090302848017
180,-0.5,0.1,-0.0,1.4072962999343872,0.3736639150627735,0.6884706021583681,0.8868067565433069
181,1.3,-0.2,-0.0,1.4072984457015991,0.43743684242117553,0.3249022146530506,0.9344073761572417
182,1.6,-0.3,0.0,1.4072999954223633,0.019631494247078995,0.06280559064271862,0.044601878952863716
183,2.9,-0.5,-0.0,1.4073011875152588,0.023708766264858627,0.6505148101152378,0.8320907652952116
184,3.0,-0.5,-0.0,1.4073021411895752,0.5314323468844124,0.5960708254704583,0.9850272034160413
185,3.5,-0.6,-0.0,1.4073001146316528,0.9403523360729837,0.02041800134698646,0.5925224689401071
186,1.0,-0.2,-0.0,1.407297968864441,0.6713436801672993,0.8364818357525897,0.6088460353518812
187,-0.6,0.1,-0.0,1.407296895980835,0.9160576973024258,0.35542961371786264,0.10005796514066645
188,-2.5,0.4,0.0,1.407295823097229,0.5828001578915035,0.9252868391953514,0.5654188721805395
189,-2.6,0.4,0.0,1.407294750213623,0.14185563014696345,0.7887262210301531,0.7951237085562002
190,-3.4,0.6,0.0,1.407294750213623,0.8525246096960618,0.6527873986918282,0.2630971898224582
191,-2.0,0.3,0.0,1.407293677330017,0.37358339947029406,0.4013831116609403,0.6044639556885293
192,-1.8,0.3,-0.0,1.4072952270507812,0.6927084772348785,0.5870777066959753,0.6431175055848447
193,0.2,-0.0,0.0,1.407297968864441,0.9864765521055392,0.3825570595790372,0.3294657831600788
194,0.6,-0.1,0.0,1.4072984457015991,0.3655849785878259,0.3889229831548455,0.6728365371384883
195,2.2,-0.4,-0.0,1.4073001146316528,0.4823862763291118,0.1011871686485728,0.9051554979887931
196,2.4,-0.4,-0.0,1.407300591468811,0.2985075930788206,0.6463489436186832,0.32252110888330765
197,3.5,-0.6,-0.0,1.4072990417480469,0.31120859460207095,0.49845038517057105,0.13527931893319423
198,2.7,-0.5,-0.0,1.4072984457015991,0.7773913369204423,0.24700664873252354,0.14134414107480164
199,1.3,-0.2,-0.0,1.407297968864441,0.5110828673630856,0.16871652967929107,0.7933653518673769
200,-1.2,0.2,0.0,1.407295823097229,0.49983361530274717,0.9282441119113273,0.8583814065601185
201,-1.8,0.3,0.0,1.407294750213623,0.345305379631622,0.45774725194383814,0.39913342255971085
202,-3.4,0.6,0.0,1.4072932004928589,0.5763503224904494,0.059557883888991525,0.6176697585254787
203,-2.6,0.4,-0.0,1.4072932004928589,0.30576381771181593,0.39972267785324156,0.1689817035235328
204,-2.8,0.5,-0.0,1.4072932004928589,0.06198802352245236,0.4347593673264891,0.6505016001503147
205,-1.0,0.2,-0.0,1.4072942733764648,0.7524598588331991,0.11474455727175714,0.6069360101578213
206,-0.5,0.1,0.0,1.4072952270507812,0.1881514252573082,0.609046275977754,0.7091382047538111
207,1.3,-0.2,-0.0,1.407297968864441,0.13002685277067705,0.01645184180239201,0.7784393697984162
208,1.6,-0.3,-0.0,1.4072990417480469,0.4129325707399838,0.1424637180024897,0.36578111838569893
209,2.9,-0.5,-0.0,1.4073001146316528,0.9532289365803227,0.19685466875324698,0.3454761772045921
210,3.0,-0.5,0.0,1.4073001146316528,0.6985367923123491,0.41479465190746145,0.811206177137435
211,3.4,-0.6,-0.0,1.407296895980835,0.6181109284013548,0.43120874310499746,0.08915937478463576
212,1.0,-0.2,-0.0,1.4072932004928589,0.015566326090456828,0.20785338239587192,0.145528749251279
213,-0.6,0.1,-0.0,1.4072926044464111,0.8246314194035136,0.5354688720749853,0.572305173680167
214,-2.5,0.4,0.0,1.4072932004928589,0.014778064653831025,0.0832150922228122,0.2500263383304808
215,-2.6,0.4,0.0,1.407292127609253,0.7316044389796983,0.32992089319248763,0.24086119170825282
216,-3.4,0.6,0.0,1.4072915315628052,0.39681883136150964,0.201106604392855,0.5318852699128693
217,-2.0,0.3,-0.0,1.407292127609253,0.25669659893049,0.9634066732248089,0.9040409049519604
218,-1.8,0.3,0.0,1.4072932004928589,0.08688308911450093,0.9994399843024075,0.64364116289384
219,0.2,-0.0,-0.0,1.407294750213623,0.9582757669232834,0.15786295065765665,0.22276234786735716
220,0.6,-0.1,-0.0,1.407295823097229,0.28860409439312995,0.12523056202958138,0.5909048113109815
221,2.2,-0.4,-0.0,1.407297968864441,0.4648466006852324,0.5524265681599984,0.5949856471852069
222,2.4,-0.4,-0.0,1.407297968864441,0.532106860741378,0.8214025714575602,0.23494779909408336
223,3.5,-0.6,-0.0,1.4072973728179932,0.3035334822528283,0.05047555874696841,0.215722612735205
224,2.7,-0.4,-0.0,1.407296895980835,0.05845703351868692,0.141756254862065,0.8446354528285843
225,1.3,-0.2,0.0,1.407296895980835,0.902487532070516,0.4822430223731209,0.147040810587724
226,-1.2,0.2,-0.0,1.4072962999343872,0.28786750653612037,0.17693811673918303,0.0595415973936706
227,-1.8,0.3,-0.0,1.407293677330017,0.5545623185732245,0.6893810046624107,0.7484102298687728
228,-3.4,0.6,0.0,1.407292127609253,0.8506068625903827,0.5436011504622978,0.3789030673600656
229,-2.6,0.4,-0.0,1.4072926044464111,0.6865459532943826,0.9171861121730749,0.23698738130179253
230,-2.8,0.5,0.0,1.4072926044464111,0.4310077829932055,0.4004986884408066,0.7743057111645976
231,-1.0,0.2,0.0,1.4072932004928589,0.7715542081539841,0.3400532686622645,0.13181144010031798
232,-0.5,0.1,0.0,1.4072952270507812,0.18110995451925727,0.6417369973072583,0.8521483971108643
233,1.3,-0.2,-0.0,1.407296895980835,0.4828427997888749,0.2938455421590259,0.4066848301196234
234,1.6,-0.3,-0.0,1.407297968864441,0.3347676836844832,0.4699318654567931,0.5679649246961801
235,2.9,-0.5,-0.0,1.407297968864441,0.8314450003271938,0.8560214087285931,0.6217892589594283
236,3.0,-0.5,-0.0,1.407297968864441,0.16607886135191452,0.9710805922116128,0.05143246613603891
237,3.4,-0.6,-0.0,1.407295823097229,0.6977998053532043,0.26798712467672925,0.9868327982988223
238,2.0,-0.3,-0.0,1.407293677330017,0.6368885164744229,0.7231426693672409,0.007090730038406101
239,2.5,-0.4,-0.0,1.407292127609253,0.018578226453713098,0.003963259671217134,0.9767624339775554
240,2.6,-0.4,-0.0,1.4072915315628052,0.20058577361602825,0.11483226992780204,0.4460693168511092
241,3.7,-0.6,-0.0,1.4072915315628052,0.9751202912887381,0.014075598017764923,0.15078969572287815
242,1.0,-0.2,-0.0,1.407291054725647,0.24107384382969022,0.9797925831076193,0.6584644246475144
243,0.2,-0.0,-0.0,1.4072915315628052,0.6505631258621462,0.09390927297255891,0.8757466740664144
244,3.9,-0.6,-0.0,1.4072926044464111,0.46053309110845264,0.692240989056423,0.3730528799179015
245,8.5,-1.4,-0.1,1.407293677330017,0.6930479343101985,0.036633295138061794,0.7475089597024478
246,6.4,-1.1,-0.0,1.407295823097229,0.3405223003351996,0.15507734368909787,0.6514554159901504
247,5.5,-0.9,-0.0,1.407296895980835,0.13295758115545964,0.8351334600514284,0.16867774543334024
248,4.5,-0.7,-0.0,1.4072990417480469,0.5201471595509363,0.7948160474775465,0.7683284572435445
249,4.2,-0.7,-0.1,1.407300591468811,0.9485088329662134,0.6159644174525685,0.3587224607662488
250,3.5,-0.6,-0.0,1.407302737236023,0.5920586695233573,0.904217864292332,0.8807486216609838
251,3.8,-0.6,-0.0,1.407304286956787,0.9621880598427117,0.20826430537866458,0.25695302171642853
252,3.3,-0.5,-0.0,1.4073048830032349,0.2971898376130392,0.5691136922571637,0.36939152994190827
253,3.7,-0.6,-0.0,1.4073048830032349,0.48077216738312323,0.22937100462047477,0.30434515150287067
254,3.3,-0.5,-0.0,1.407308578491211,0.9531327919924585,0.2864895209582452,0.915650979863855
255,3.6,-0.6,-0.0,1.407312273979187,0.47743235804510653,0.30551889756733397,0.03213180129659832
256,3.3,-0.5,-0.0,1.4073160886764526,0.2581309342235245,0.0643770456885342,0.4040073001043163
257,3.6,-0.6,-0.0,1.4073182344436646,0.4309955771173234,0.04802602313350712,0.10429572975383938
258,2.9,-0.5,-0.0,1.4073214530944824,0.606169515918088,0.07376606393631568,0.6599935755763897
259,1.5,-0.2,-0.0,1.4073234796524048,0.02136726654594001,0.5439807394470083,0.010209670030560836
260,-0.5,0.1,0.0,1.4073262214660645,0.45413629188342997,0.7895925223355497,0.45886584372466543
261,-1.1,0.2,-0.0,1.4073282480239868,0.5626162016699587,0.16587136090550114,0.6431736149164978
262,-1.2,0.2,-0.0,1.4073305130004883,0.23452572193819765,0.8406413491122908,0.8280217521250214
263,-0.4,0.1,-0.0,1.4073331356048584,0.18515749519430325,0.8411790142149193,0.18394918575204422
264,-1.4,0.2,0.0,1.4073351621627808,0.23181687875030998,0.059075833656987986,0.45117599764177296
265,-1.7,0.3,-0.0,1.4073373079299927,0.8875435389953527,0.409790481145651,0.32320130694830507
266,-2.5,0.4,0.0,1.4073394536972046,0.718864003531106,0.2641826491934417,0.09329242676355398
267,-2.3,0.4,-0.0,1.4073415994644165,0.9741943325737438,0.9004391692947062,0.9573335283143536
268,-2.9,0.5,0.0,1.4073437452316284,0.15749727577357064,0.6622124860630882,0.8914660075833721
269,-2.5,0.4,0.0,1.4073443412780762,0.6373774920769607,0.7689078421984596,0.5596738259772942
270,-3.0,0.5,0.0,1.4073448181152344,0.6287755620473952,0.46592118364522817,0.10859836112203869
271,-2.5,0.4,0.0,1.4073443412780762,0.6211354175711192,0.886290240471225,0.5852104051352351
272,-3.0,0.5,0.0,1.4073443412780762,0.6102122112918665,0.7462490012923059,0.24965346352304407
273,-1.3,0.2,0.0,1.4073437452316284,0.7613428343823049,0.7785072269945166,0.03744117705843042
274,-0.2,0.0,0.0,1.4073426723480225,0.5485536299358819,0.4605437509699597,0.8754818778491266
275,-2.6,0.4,0.0,1.4073411226272583,0.32143514618638247,0.6948967958448167,0.7006980688185123
276,-10.5,1.7,0.1,1.4073394536972046,0.528153519011714,0.44726418903144327,0.41258999595260815
277,-8.6,1.4,0.1,1.4073379039764404,0.8066761755228844,0.3193702685658384,0.4026724942674834
278,-6.3,1.0,0.0,1.4073362350463867,0.7013680007066578,0.5865906542514141,0.5700478592961993
279,-6.0,1.0,0.0,1.4073342084884644,0.442501642272321,0.23809016440208064,0.5648620110408483
280,-3.8,0.6,0.0,1.4073325395584106,0.5991961251087958,0.16762689039147904,0.840666168768533
281,-2.9,0.5,0.0,1.4073303937911987,0.3753595254214669,0.6391364754008796,0.0796559701065106
282,-0.6,0.1,-0.0,1.4073288440704346,0.10129636156816513,0.9753044454281591,0.3058677449987818
283,0.1,-0.0,0.0,1.4073277711868286,0.18422886333849386,0.0016137232589146233,0.04542820062667541
284,1.7,-0.3,-0.0,1.4073266983032227,0.9122459854045393,0.8601636251240453,0.8906780414899904
285,2.1,-0.3,-0.0,1.4073234796524048,0.26181150141918363,0.4486736727292979,0.6734120839952289
286,3.3,-0.5,-0.0,1.4073182344436646,0.9788421682853761,0.009141728987066555,0.7322460167212689
287,0.2,-0.0,-0.0,1.4073154926300049,0.22513732247466656,0.9007167059681512,0.28175868216621314
288,0.2,-0.0,-0.0,1.4073090553283691,0.845803748948477,0.9511804449577456,0.2513461349442724
289,4.2,-0.7,-0.0,1.407305359840393,0.35786475050041067,0.49099698524645297,0.3227212834138169
290,2.7,-0.4,-0.0,1.407302737236023,0.8080670014387554,0.6477728138508351,0.13492073314979502
291,-1.6,0.3,0.0,1.4073001146316528,0.3148942374813395,0.21514061412628405,0.058975897737784555
292,-3.2,0.5,0.0,1.4072990417480469,0.16136385396501574,0.5456128785032798,0.4650573693610518
293,-5.1,0.8,0.0,1.4072990417480469,0.5525016868673113,0.04313883894852233,0.1739578337974066
294,-4.8,0.8,0.0,1.4072999954223633,0.4806056476530369,0.1423079245765877,0.2467090815405253
295,-6.3,1.0,0.0,1.407300591468811,0.6488215515147527,0.9291230779787312,0.9754206058341862
296,-5.2,0.9,0.0,1.407301664352417,0.9598565747664752,0.34160902216480227,0.5265728596815377
297,-6.3,1.0,0.0,1.407301664352417,0.864122931107437,0.8053164620774332,0.17336257599318716
298,-4.4,0.7,0.0,1.4073033332824707,0.5481765277563021,0.8330358326019545,0.15175126910066639
299,-7.3,1.2,0.0,1.4073048830032349,0.9807082729057702,0.07295669706539121,0.9203764257046086
300,-10.4,1.7,0.1,1.4073059558868408,0.26896601696274425,0.6274223743349369,0.9235811018571636
301,-8.5,1.4,0.0,1.407306432723999,0.26140765129302423,0.24511594083829014,0.8954992786640894
302,-10.9,1.8,0.1,1.407304286956787,0.9789231011564521,0.19252007571832674,0.4627716183707188
303,-26.2,4.3,0.1,1.4073011875152588,0.48920215615728124,0.5017447844538541,0.432350847721945
304,-26.2,4.3,0.2,1.407296895980835,0.4283453118870517,0.8302750995176759,0.37242539975853695
305,-25.8,4.3,0.2,1.4072952270507812,0.36131946164871254,0.8929611370369058,0.5326005761522927
306,-25.5,4.2,0.2,1.407289981842041,0.7481596828257115,0.8138343825648585,0.7227139969809947
307,-14.8,2.4,0.1,1.4072872400283813,0.45836280342835656,0.06598468421658898,0.7568668304438627
308,-0.2,0.0,0.0,1.4072824716567993,0.2793913070997103,0.9077096012849231,0.38024604465961875
309,-0.1,0.0,0.0,1.4072771072387695,0.9321285322345612,0.7471469790147484,0.6673438822278869
310,-0.0,0.0,0.0,1.4072734117507935,0.8884998984134579,0.5647465501044752,0.37678872223321414
311,0.0,-0.0,-0.0,1.4072664976119995,0.1251824586028477,0.6660332141958122,0.38085267157897407
312,0.0,-0.0,-0.0,1.4072574377059937,0.6247782951354839,0.9086307534185927,0.8453558714777449
313,0.0,-0.0,-0.0,1.4072500467300415,0.2596383578629532,0.03867469127164003,0.3105734444277055
314,0.0,-0.0,0.0,1.4072409868240356,0.461477638279163,0.3543022023480703,0.9037192607349066
315,0.0,-0.0,-0.0,1.4072351455688477,0.48625530719306964,0.06986545406167466,0.6778070646870887
316,0.0,-0.0,0.0,1.4072282314300537,0.6168487306295936,0.6826033497206762,0.9428985200929466
317,0.0,-0.0,0.0,1.407228708267212,0.8668585160873653,0.33977331994356663,0.43035084624930386
318,0.0,-0.0,-0.0,1.4072303771972656,0.6884417547575361,0.7462818175679887,0.11651641072205676
319,0.0,-0.0,-0.0,1.4072319269180298,0.27855704499526723,0.6356150254843531,0.3873113525514362
320,0.0,-0.0,0.0,1.407233476638794,0.386439232363444,0.16757333690300802,0.7106817692349747
321,0.0,-0.0,-0.0,1.4072351455688477,0.9622394269483886,0.2493835269277176,0.4604305604905903
322,0.0,-0.0,0.0,1.4072362184524536,0.1205607868892613,0.10304645373107502,0.49209848987766847
323,0.0,-0.0,0.0,1.4072366952896118,0.9116507441322322,0.1288146198724076,0.6886369623400761
324,0.0,-0.0,-0.0,1.4072372913360596,0.9243659083904964,0.2293729309454522,0.412289820171311
325,0.0,-0.0,-0.0,1.4072372913360596,0.6851064844285568,0.10547494261309664,0.3663616726248641
326,0.0,0.0,0.0,1.4072377681732178,0.26963659925297445,0.837414158443627,0.36104170873766495
327,0.0,0.0,0.0,1.4072377681732178,0.13474249300301822,0.157613829946204,0.25189294933164186
328,0.0,0.0,0.0,1.4072377681732178,0.750170971236656,0.0814718311831455,0.17289194828288035
329,0.0,0.0,0.0,1.4072377681732178,0.9648116753770518,0.17910503946120426,0.8554579550669321
330,0.0,0.0,0.0,1.4072377681732178,0.4405655979571419,0.6321964378704154,0.0036189196866747153
331,0.0,0.0,0.0,1.4072377681732178,0.6862831292275476,0.8937761330825839,0.4301635992591416
332,0.0,0.0,0.0,1.4072377681732178,0.8544810035719372,0.08201814892751669,0.39814782287994166
333,0.0,0.0,0.0,1.40723717212677,0.8472590228512649,0.5221763366857712,0.44365610411420475
334,0.0,0.0,0.0,1.40723717212677,0.32567156827397103,0.8041137514098069,0.2530634334019225
335,0.0,0.0,0.0,1.40723717212677,0.4731455629145085,0.8518174771446428,0.4199913845267922
336,0.0,0.0,0.0,1.40723717212677,0.6873794879169014,0.2517865242068965,0.5917691410203342
337,0.0,0.0,0.0,1.40723717212677,0.8882623217083169,0.001555356139923414,0.5875139452027053
338,0.0,0.0,0.0,1.40723717212677,0.1688922448790502,0.30839726152851754,0.026625490790698425
339,0.0,0.0,0.0,1.40723717212677,0.6779801656627166,0.031384646493052504,0.35923214934320824
340,0.0,0.0,0.0,1.40723717212677,0.9942782117879623,0.634354731902993,0.47575367245281786
341,0.0,0.0,0.0,1.40723717212677,0.72375187210049,0.3245802121567689,0.7006325730500708
342,0.0,0.0,0.0,1.40723717212677,0.7396367642359222,0.12423318155596907,0.698874805524864
343,0.0,0.0,0.0,1.40723717212677,0.19996740788017897,0.2416431280869391,0.4279517980993933
344,0.0,0.0,0.0,1.40723717212677,0.07408810721817038,0.4196954572138738,0.27146538299616185
345,0.0,0.0,0.0,1.40723717212677,0.1378668622672723,0.7792384902339536,0.031679305864305896
346,0.0,0.0,0.0,1.40723717212677,0.4835565420375173,0.29812286608593686,0.9973935305369083
347,0.0,0.0,0.0,1.40723717212677,0.14642993425058148,0.9864432153984823,0.31326765677772506
348,0.0,0.0,0.0,1.40723717212677,0.7837073814976759,0.32260305788490085,0.7220421188230838
349,0.0,0.0,0.0,1.40723717212677,0.5800749246313257,0.6207152959258601,0.6936360732739951
350,0.0,0.0,0.0,1.40723717212677,0.6799839134469174,0.9951115496089047,0.9306987615980974
351,0.0,0.0,0.0,1.40723717212677,0.5655560887781205,0.16006116402701898,0.7693498332434192
352,0.0,0.0,0.0,1.40723717212677,0.44439257615511063,0.4000714173118679,0.4203936338412817
353,0.0,0.0,0.0,1.40723717212677,0.9643590343281286,0.13807369945500036,0.02594285964951404
354,0.0,0.0,0.0,1.40723717212677,0.7762599799701522,0.6398674168018393,0.2528002109960672
355,0.0,0.0,0.0,1.40723717212677,0.45475899413496323,0.0918177297988575,0.3945070598816104
356,0.0,0.0,0.0,1.40723717212677,0.7794936487583278,0.8620435424351233,0.3511105015293794
357,0.0,0.0,0.0,1.40723717212677,0.519112987681219,0.6768843696238965,0.8831638332329176
358,0.0,0.0,0.0,1.40723717212677,0.7030738434736292,0.7426616307094415,0.08351592051808499
359,0.0,0.0,0.0,1.40723717212677,0.024603081030696528,0.41260820715057134,0.2447611915522112
360,0.0,0.0,0.0,1.40723717212677,0.7645061502816434,0.9887816800118719,0.47619429386962486
361,0.0,0.0,0.0,1.40723717212677,0.25275074932574715,0.526323539563185,0.6374939143006554
362,0.0,0.0,0.0,1.40723717212677,0.522956941274914,0.3370838998092037,0.5494151162819426
363,0.0,0.0,0.0,1.40723717212677,0.04618295074154155,0.8023338842925748,0.29613938775101245
364,0.0,0.0,0.0,1.40723717212677,0.7025244670840326,0.5863276664175544,0.953860294652706
365,0.0,0.0,0.0,1.40723717212677,0.8903725466468966,0.7411797536585979,0.6867948244399296
366,0.0,0.0,0.0,1.40723717212677,0.39525054624329026,0.23905310558544468,0.27820283009759883
367,0.0,0.0,0.0,1.40723717212677,0.29143872377398594,0.341205887569887,0.7977770227560457
368,0.0,0.0,0.0,1.40723717212677,0.8027742308262457,0.7168026431405171,0.47581307196096523
369,0.0,0.0,0.0,1.40723717212677,0.5170828352340785,0.37937055696095967,0.6513072864767272
370,0.0,0.0,0.0,1.40723717212677,0.21204627973965984,0.7034224578278395,0.18636082267295784
371,0.0,0.0,0.0,1.40723717212677,0.8533644996365056,0.5846340017284823,0.33452006727504613
372,0.0,0.0,0.0,1.40723717212677,0.6178779543514892,0.6061221074618679,0.6477205302505824
373,0.0,0.0,0.0,1.40723717212677,0.2815891529465293,0.38187612636349144,0.09942771561360375
374,0.0,0.0,0.0,1.40723717212677,0.13640120328716554,0.8370735595517002,0.879968457176869
375,0.0,0.0,0.0,1.40723717212677,0.48812905895316105,0.16086185860555524,0.6060501419638719
376,0.0,0.0,0.0,1.40723717212677,0.2789031340429835,0.15016620307959339,0.9078819524758023
377,0.0,0.0,0.0,1.40723717212677,0.42826026098564773,0.8128469768818943,0.7956925338160389
378,0.0,0.0,0.0,1.40723717212677,0.6065912762336305,0.02285589219046258,0.1063034594507356
379,0.0,0.0,0.0,1.40723717212677,0.7914958520559295,0.49550397575787475,0.3933230825066044
380,0.0,0.0,0.0,1.40723717212677,0.5756791251927652,0.11146139905742058,0.8066723703903705
381,0.0,0.0,0.0,1.40723717212677,0.9283511584827607,0.4926948116198102,0.32283124699959875
382,0.0,0.0,0.0,1.40723717212677,0.09910476238816746,0.11662030167375048,0.305407214011748
383,0.0,0.0,0.0,1.40723717212677,0.24685939803147228,0.9808002348462613,0.9630855836196717
384,0.0,0.0,0.0,1.40723717212677,0.3995712848946137,0.7996456415918444,0.13608346743242694
385,0.0,0.0,0.0,1.40723717212677,0.3146798446046466,0.21988992337168412,0.5555548948356425
386,0.0,0.0,0.0,1.40723717212677,0.2561735639141349,0.24285217162839923,0.9607238522482868
387,0.0,0.0,0.0,1.40723717212677,0.9807975209514237,0.12359763346677033,0.272591469622674
388,0.0,0.0,0.0,1.40723717212677,0.8017643434568525,0.8160378255847766,0.7938330017689474
389,0.0,0.0,0.0,1.40723717212677,0.41065944095688034,0.4174032148182102,0.06551487544242118
390,0.0,0.0,0.0,1.40723717212677,0.45514859273787234,0.08188649362708988,0.36063888812656586
391,0.0,0.0,0.0,1.40723717212677,0.3522900349867967,0.3167311846896991,0.3717046688921871
392,0.0,0.0,0.0,1.40723717212677,0.6639722712901953,0.9437977731902661,0.4910603518737058
393,0.0,0.0,0.0,1.40723717212677,0.4559049517958862,0.22416041530509923,0.06371407964436338
394,0.0,0.0,0.0,1.40723717212677,0.722788091119088,0.5952092849039103,0.34272699882855107
395,0.0,0.0,0.0,1.40723717212677,0.5935117751435744,0.05395657353446304,0.9192014358444447
396,0.0,0.0,0.0,1.40723717212677,0.8967133100719651,0.8094287834856387,0.474427861324475
397,0.0,0.0,0.0,1.40723717212677,0.8976611423095658,0.6313383911724968,0.6064437674725446
398,0.0,0.0,0.0,1.40723717212677,0.13382478857916424,0.4305456858335339,0.6114529479263155
399,0.0,0.0,0.0,1.40723717212677,0.2002174486977738,0.4487481049046069,0.5714477992936314
400,0.0,0.0,0.0,1.40723717212677,0.5694607743980203,0.9594986183544093,0.731896489388661
401,0.0,0.0,0.0,1.40723717212677,0.13244171725158882,0.3066610667794437,0.37951748725523793
402,0.0,0.0,0.0,1.40723717212677,0.4040641700509042,0.8660969812997726,0.3641133042201906
403,0.0,0.0,0.0,1.40723717212677,0.10771886084825388,0.34696967258082534,0.8908201235181867
404,0.0,0.0,0.0,1.40723717212677,0.3528987362571012,0.8381562444570017,0.545524380985207
405,0.0,0.0,0.0,1.40723717212677,0.12825512135354722,0.2675715452284222,0.8513499094073049
406,0.0,0.0,0.0,1.40723717212677,0.4882412734856423,0.5517580026009705,0.2677648478880834
407,0.0,0.0,0.0,1.40723717212677,0.5963863173769347,0.007000794132367094,0.5804634982341018
408,0.0,0.0,0.0,1.40723717212677,0.4512969870576995,0.9749044844999264,0.369223132415308
409,0.0,0.0,0.0,1.40723717212677,0.9553981531502339,0.23907875693456182,0.5144829322506599
410,0.0,0.0,0.0,1.40723717212677,0.24441322360611295,0.8761104733718886,0.5735257203140874
411,0.0,0.0,0.0,1.40723717212677,0.1588417591673068,0.07185779592826647,0.3341821601582643
412,0.0,0.0,0.0,1.40723717212677,0.2845043749282953,0.9547724771992572,0.7498497058200878
413,0.0,0.0,0.0,1.40723717212677,0.6629332013230723,0.6131411489471181,0.11038120702535292
414,0.0,0.0,0.0,1.40723717212677,0.6944727359883929,0.09704126245684475,0.37916459680151615
415,0.0,0.0,0.0,1.40723717212677,0.4956092867398062,0.021160392696540686,0.9306165341697149
416,0.0,0.0,0.0,1.40723717212677,0.073605268780505,0.17503107999948986,0.5109735894370203
417,0.0,0.0,0.0,1.40723717212677,0.21050472248900287,0.042111461568528186,0.92090754591168
418,0.0,0.0,0.0,1.40723717212677,0.17430552505272146,0.9763321742226754,0.7180878829386466
419,0.0,0.0,0.0,1.40723717212677,0.6008076005100614,0.30530546626383526,0.1361308900922722
420,0.0,0.0,0.0,1.40723717212677,0.7915491179033504,0.47849409120593056,0.2977171440559596
421,0.0,0.0,0.0,1.40723717212677,0.06293878235813777,0.594687611166624,0.10026257316284903
422,0.0,0.0,0.0,1.40723717212677,0.11033186991283706,0.8654990901635375,0.6960297401264905
423,0.0,0.0,0.0,1.40723717212677,0.34490379179528374,0.3814702708013241,0.28742011036892745
424,0.0,0.0,0.0,1.40723717212677,0.3547934597074177,0.6804258923653581,0.9860180865196846
425,0.0,0.0,0.0,1.40723717212677,0.8640487863259764,0.5180806073395515,0.48133339423162325
426,0.0,0.0,0.0,1.40723717212677,0.2625624619429817,0.577333538458084,0.5061176921498605
427,0.0,0.0,0.0,1.40723717212677,0.9472277917127314,0.3713587985551551,0.618594104764689
428,0.0,0.0,0.0,1.40723717212677,0.07846219999326554,0.7829969794030862,0.8324729349910724
429,0.0,0.0,0.0,1.40723717212677,0.5823749405988968,0.9076910537553771,0.608134539187029
430,0.0,0.0,0.0,1.40723717212677,0.4463677024304292,0.07473648338542183,0.42465231201644205
431,0.0,0.0,0.0,1.40723717212677,0.8882152703396688,0.2957004098919398,0.09399971053212508
432,0.0,0.0,0.0,1.40723717212677,0.6357684238057987,0.025355670923382756,0.01597166724076582
433,0.0,0.0,0.0,1.40723717212677,0.25500481536860586,0.8771376574205163,0.42698527262264296
434,0.0,0.0,0.0,1.40723717212677,0.08768608255905175,0.9252923561741638,0.9744898930568515
435,0.0,0.0,0.0,1.40723717212677,0.7914696545152693,0.5651503566601505,0.27965950071447876
436,0.0,0.0,0.0,1.40723717212677,0.06970845057638553,0.2759766510699668,0.05449815595680063
437,0.0,0.0,0.0,1.40723717212677,0.3956892051122931,0.6972705595697138,0.06538935185729722
438,0.0,0.0,0.0,1.40723717212677,0.9123398063680822,0.32255895736861273,0.4659161715292044
439,0.0,0.0,0.0,1.40723717212677,0.4815188364348906,0.11906116598910377,0.6145852649704036
440,0.0,0.0,0.0,1.40723717212677,0.07181171552530075,0.6611960480455735,0.9175347685374944
441,0.0,0.0,0.0,1.40723717212677,0.7425191087518007,0.36624725637567557,0.06906472070005865
442,0.0,0.0,0.0,1.40723717212677,0.6892530785783915,0.2083414419462224,0.3724458150599783
443,0.0,0.0,0.0,1.40723717212677,0.5533661969139051,0.937582980036039,0.2821979613370985
444,0.0,0.0,0.0,1.40723717212677,0.15038914529102976,0.13958003178564393,0.7085508877405133
445,0.0,0.0,0.0,1.40723717212677,0.10902067046222352,0.04718257666274017,0.34324906537852895
446,0.0,0.0,0.0,1.40723717212677,0.5015411521844995,0.698422097765908,0.932505466071868
447,0.0,0.0,0.0,1.40723717212677,0.9994727994454948,0.514059482675846,0.34151683699092994
448,0.0,0.0,0.0,1.40723717212677,0.5514130292218892,0.03836990676846075,0.3944047242316966
449,0.0,0.0,0.0,1.40723717212677,0.95380151205595,0.08005691459812203,0.3038542904614132
450,0.0,0.0,0.0,1.40723717212677,0.21663551039216944,0.10313756226993398,0.6104796731279126
451,0.0,0.0,0.0,1.40723717212677,0.9297224128372019,0.8926307631573412,0.6556477702836689
452,0.0,0.0,0.0,1.40723717212677,0.5619854982338728,0.005729691173317231,0.1799945724534212
453,0.0,0.0,0.0,1.40723717212677,0.23552140763787943,0.9269277769898141,0.6980210410855796
454,0.0,0.0,0.0,1.40723717212677,0.5098848849087361,0.969245445400856,0.5071567418255772
455,0.0,0.0,0.0,1.40723717212677,0.7799707449417086,0.8347124102789286,0.7111913822040409
456,0.0,0.0,0.0,1.40723717212677,0.3706277945248976,0.3491320024595831,0.9828986002724638
457,0.0,0.0,0.0,1.40723717212677,0.6617305710830248,0.2140557078108768,0.32084266170550446
458,0.0,0.0,0.0,1.40723717212677,0.7590832171869036,0.7032159110145374,0.5479876518444955
459,0.0,0.0,0.0,1.40723717212677,0.4088510272981798,0.45918079089807395,0.20130802135488335
460,0.0,0.0,0.0,1.40723717212677,0.5832405318600732,0.1862758643250335,0.9318318102860612
461,0.0,0.0,0.0,1.40723717212677,0.10186676658636817,0.020520826318008556,0.306441213906811
462,0.0,0.0,0.0,1.40723717212677,0.08295575999163796,0.30894856502510715,0.09175395419702714
463,0.0,0.0,0.0,1.40723717212677,0.02087516585924598,0.042257519072902316,0.6405999857627268
464,0.0,0.0,0.0,1.40723717212677,0.5088629286038264,0.10354714398034126,0.8385229633087438
465,0.0,0.0,0.0,1.40723717212677,0.38691541845038757,0.9338819509753201,0.6368715043629888
466,0.0,0.0,0.0,1.40723717212677,0.4438374351284313,0.5004041504159369,0.7108879293999409
467,0.0,0.0,0.0,1.40723717212677,0.2010855094610906,0.15219295642847863,0.49415787843546166
468,0.0,0.0,0.0,1.40723717212677,0.24873280234897266,0.8187568632329556,0.7398062247826034
469,0.0,0.0,0.0,1.40723717212677,0.11162142057305136,0.2083670862255499,0.020715791453172483
470,0.0,0.0,0.0,1.40723717212677,0.028976541164743574,0.5332949099031361,0.3452084832346046
471,0.0,0.0,0.0,1.40723717212677,0.24878136372455617,0.41656454998925396,0.9190346673469466
472,0.0,0.0,0.0,1.40723717212677,0.13451988259027092,0.450443436793606,0.45490083304578166
473,0.0,0.0,0.0,1.40723717212677,0.1998157292351932,0.18407190435980658,0.48349917192202874
474,0.0,0.0,0.0,1.40723717212677,0.4120927376888667,0.42306950352010586,0.15568731656641743
475,0.0,0.0,0.0,1.40723717212677,0.4027657098229773,0.3593819121524394,0.8595249621144232
476,0.0,0.0,0.0,1.40723717212677,0.3619035135259179,0.5318653978518115,0.7778210446724734
477,0.0,0.0,0.0,1.40723717212677,0.2233171104586028,0.31264001522919116,0.3976583219845401
478,0.0,0.0,0.0,1.40723717212677,0.5168761160583547,0.4537332965068921,0.6082381692109284
479,0.0,0.0,0.0,1.40723717212677,0.46574699847619005,0.7297761323949272,0.25741955681523465
480,0.0,0.0,0.0,1.40723717212677,0.9489244729458293,0.8932293792017393,0.05820598335710192
481,0.0,0.0,0.0,1.40723717212677,0.9850615892710692,0.9405965783386062,0.9532029819421017
482,0.0,0.0,0.0,1.40723717212677,0.6299262642783972,0.11151957941844481,0.18562490564860157
483,0.0,0.0,0.0,1.40723717212677,0.5997133580342858,0.5073457650840874,0.58402802527629
484,0.0,0.0,0.0,1.40723717212677,0.46085014147146397,0.27610346396214425,0.5663714077219627
485,0.0,0.0,0.0,1.40723717212677,0.7140029271810034,0.11992502297556373,0.9777340907529463
486,0.0,0.0,0.0,1.40723717212677,0.16098111934113812,0.7424261634293442,0.3326904515451633
487,0.0,0.0,0.0,1.40723717212677,0.049500559448143355,0.5811755434515888,0.39066566377190204
488,0.0,0.0,0.0,1.40723717212677,0.8251050943942918,0.8601543462261785,0.8692759471827399
489,0.0,0.0,0.0,1.40723717212677,0.8669372222115013,0.2038948909842736,0.3249462081354617
490,0.0,0.0,0.0,1.40723717212677,0.548095183610969,0.6966143141228163,0.6589552344709853
491,0.0,0.0,0.0,1.40723717212677,0.8532765868780321,0.7377608338092811,0.4299804864600606
492,-0.8,0.1,-0.0,1.40723717212677,0.8120310956455173,0.9642255645417281,0.09248732875238252
493,1.9,-0.3,0.0,1.40723717212677,0.33214296390829967,0.1881114713982247,0.29738418723771787
494,-0.5,0.1,0.0,1.40723717212677,0.5525579709916693,0.6368953297562772,0.6142453282410623
495,0.3,-0.0,0.0,1.40723717212677,0.9381420226944021,0.6656932344085986,0.0296359190436577
496,0.1,-0.0,0.0,1.40723717212677,0.70112676450448,0.9679803188242758,0.7379450442852622
497,0.3,-0.1,0.0,1.40723717212677,0.9603892397416183,0.5843364841705301,0.8808722907586598
498,4.4,-0.7,-0.0,1.40723717212677,0.5199936691378632,0.3483694547730528,0.7630900963922842
499,1.8,-0.3,-0.0,1.40723717212677,0.6206994960712351,0.2682016580757859,0.7757777934026947
500,3.4,-0.6,-0.0,1.40723717212677,0.499889685981896,0.18151741545317523,0.6682165944516654
501,4.5,-0.7,-0.0,1.407239317893982,0.20069172674969393,0.6193311986638018,0.952816653315906
502,3.4,-0.5,-0.0,1.4073165655136108,0.7078580509133856,0.5690412780379835,0.8075526580389617
503,2.7,-0.5,-0.0,1.407389521598816,0.27820709636990126,0.9219610235392873,0.4939287328947629
504,2.7,-0.4,-0.0,1.4073938131332397,0.47943846223896747,0.614462623461966,0.6050886650746168
505,2.4,-0.4,-0.0,1.4073363542556763,0.238155871815259,0.3505364945654008,0.943882995537758
506,2.8,-0.5,-0.0,1.4073346853256226,0.5447990290121959,0.2563102769627815,0.09172450733664506
507,2.3,-0.4,-0.0,1.407360315322876,0.34201490006417723,0.5523127893201243,0.004553881280813354
508,2.9,-0.5,-0.0,1.4075440168380737,0.983196159479369,0.33419977402480616,0.5999782016993834
509,3.4,-0.6,-0.0,1.407594084739685,0.1051081993149241,0.9538317657185776,0.9736146711232211
510,3.9,-0.6,-0.0,1.407906174659729,0.9152010651793441,0.7194579790384429,0.344267123255533
511,4.0,-0.7,-0.0,1.408031940460205,0.702369484100972,0.11274968166547028,0.5481151799259105
512,4.2,-0.7,-0.0,1.4079583883285522,0.8126828512251492,0.008427471657027286,0.23413682759347187
513,4.5,-0.7,-0.0,1.4083871841430664,0.956371860716158,0.9936884375040569,0.2745547980142231
514,4.8,-0.8,-0.0,1.4081085920333862,0.5248303870996605,0.10209635939895201,0.37858974429096515
515,5.0,-0.8,-0.0,1.4081608057022095,0.9275278278937267,0.7904225769587859,0.835135733467363
516,5.4,-0.9,-0.0,1.4081523418426514,0.07543774458365793,0.07582924585402873,0.8832073152946565
517,5.2,-0.8,-0.0,1.4081586599349976,0.38783113141950154,0.9062665510115309,0.16040299631963506
518,4.9,-0.8,-0.0,1.40812087059021,0.9568655493411148,0.8181406140020002,0.5001992569273616
519,4.7,-0.8,-0.0,1.4081411361694336,0.5759568574608135,0.3032581735965172,0.6374746193463652
520,4.6,-0.8,-0.0,1.4081592559814453,0.44159380042702245,0.9164887450695545,0.18081965733484417
521,4.6,-0.8,-0.0,1.4081789255142212,0.47782994221958575,0.6050338615200863,0.8579767031159429
522,4.6,-0.7,-0.0,1.4081666469573975,0.38647079624325675,0.5829346395018113,0.2709734200680596
523,4.6,-0.7,0.0,1.4081778526306152,0.6778462431289269,0.7891452657877288,0.9655890995234598
524,2.1,-0.4,-0.1,1.4081634283065796,0.44119009615995086,0.5211245843991308,0.6169974346845438
525,-0.4,0.1,-0.0,1.4081858396530151,0.09429241816992473,0.017120103085531357,0.42564808752371364
526,-0.4,0.1,-0.0,1.4081698656082153,0.40438395084349044,0.09634961233450345,0.7345652006670349
527,0.8,-0.1,-0.0,1.4081783294677734,0.8183031925910603,0.7205650543451265,0.3412372821621982
528,-0.4,0.1,-0.0,1.4081783294677734,0.271184614055872,0.7856664440466995,0.496958873239956
529,1.0,-0.2,-0.0,1.408179521560669,0.3960265499748493,0.15008958761036617,0.11374281510772377
530,13.6,-2.2,-0.1,1.408181071281433,0.17290173555376742,0.385794148195687,0.9384282601528195
531,7.3,-1.2,-0.0,1.408182144165039,0.7727929545849341,0.07195101314025054,0.7114565034610814
532,4.6,-0.8,-0.0,1.408184289932251,0.7255596810028917,0.4303473453632022,0.012380533626256462
533,5.0,-0.8,-0.0,1.408218264579773,0.4953782579018291,0.29289316582952396,0.778108717298651
534,4.6,-0.8,-0.0,1.408187985420227,0.6069153881712086,0.7940779708452486,0.1020120200712008
535,5.2,-0.9,-0.0,1.4081581830978394,0.6084276595068934,0.32734154973192,0.9969072167852283
536,4.7,-0.8,-0.1,1.4081463813781738,0.17482485073290455,0.8126621651136684,0.5322323527542429
537,5.3,-0.9,-0.1,1.4081426858901978,0.6971404607864377,0.013212274268484592,0.854386746091795
538,4.8,-0.8,-0.0,1.40814208984375,0.9268080215844978,0.6192743971614199,0.8951441648457418
539,5.3,-0.9,-0.0,1.4081437587738037,0.24953081187049497,0.372054250863576,0.06348383454819484
540,-0.6,0.1,0.0,1.4081469774246216,0.5857846412525977,0.011123695343834616,0.517202865408953
541,0.3,-0.0,0.0,1.4081506729125977,0.6462116251362399,0.6990482569129751,0.35116216309274906
542,8.2,-1.3,-0.1,1.4081534147262573,0.38896204895630804,0.5690992873469943,0.736636401449231
543,8.3,-1.4,-0.1,1.4081491231918335,0.823056882057216,0.8039771605079121,0.6963580326276846
544,6.2,-1.0,-0.1,1.4081523418426514,0.7600566497893945,0.2635550110199373,0.913685010077467
545,5.3,-0.9,-0.0,1.4081655740737915,0.007793198667566115,0.4197870008150649,0.1887584188462701
546,3.8,-0.6,-0.0,1.4081624746322632,0.09126587809509434,0.532609271995097,0.5644155656542913
547,3.9,-0.6,-0.0,1.4081618785858154,0.9565040551586765,0.1715106753221225,0.8129742339706971
548,3.4,-0.6,-0.0,1.4081672430038452,0.5012205874201905,0.0303615509462557,0.058687558782302474
549,3.8,-0.6,-0.0,1.4081693887710571,0.6314485500202399,0.7459834157626669,0.3318228829273968
550,3.4,-0.6,-0.0,1.4081692695617676,0.3234969567508502,0.6141120844408731,0.8947653857335006
551,3.8,-0.6,-0.0,1.4081720113754272,0.1684330242337656,0.7657596748332535,0.6872152995817061
552,3.4,-0.6,-0.0,1.4081757068634033,0.770103935309694,0.3392602649397847,0.6933880386211204
553,3.7,-0.6,-0.0,1.4081772565841675,0.6586816239658788,0.21459178666341294,0.3635915696704807
554,3.3,-0.5,-0.0,1.4081804752349854,0.5665827917473149,0.7551976711532855,0.8384559709264924
555,3.7,-0.6,-0.1,1.4081836938858032,0.1507242958704773,0.7622461964022906,0.431553544590474
556,3.3,-0.5,-0.0,1.4081873893737793,0.8539997954060742,0.7234778079366502,0.8386467340516937
557,3.6,-0.6,-0.0,1.4081895351409912,0.10929592110651687,0.4414050291112456,0.009269039283899994
558,3.3,-0.5,-0.0,1.4081922769546509,0.7178928964888439,0.23336125709291822,0.6961683158622132
559,3.6,-0.6,-0.0,1.4081943035125732,0.9068834497400233,0.8321695615589021,0.7270289465921104
560,3.3,-0.5,-0.1,1.4081964492797852,0.7756776141671023,0.3228983534855925,0.19899791327884653
561,3.5,-0.6,-0.0,1.408198595046997,0.39337961178979997,0.6262515490482901,0.1569930265459274
562,3.4,-0.5,-0.0,1.408200740814209,0.8743726073963369,0.983852260713863,0.31594272304461446
563,3.4,-0.6,-0.0,1.408202886581421,0.4843718272627048,0.5925723889207661,0.8143109789348973
564,3.4,-0.6,-0.0,1.4082050323486328,0.1747978615300222,0.22621108212430863,0.5318165139769244
565,3.4,-0.6,-0.0,1.4082071781158447,0.17661276913359225,0.7452362904585615,0.7494981286217106
566,3.4,-0.6,-0.0,1.4082098007202148,0.044680188329452086,0.900425202469255,0.2284883388962241
567,3.4,-0.6,-0.0,1.4082119464874268,0.6768129539998843,0.4676480447247022,0.024734859212961813
568,3.4,-0.6,-0.0,1.4082140922546387,0.4532834430434245,0.9107657308978874,0.8305955847092644
569,3.4,-0.6,-0.1,1.4082162380218506,0.11069249227647937,0.6809100147861573,0.42799970470016824
570,3.4,-0.6,-0.0,1.4082183837890625,0.3219053136722233,0.6265432466280556,0.626543977395673
571,3.4,-0.6,-0.0,1.4082204103469849,0.10128868549343861,0.5396482230291502,0.41642433494868136
572,3.4,-0.6,-0.0,1.4082225561141968,0.24888269459875434,0.9640639149497755,0.043742210312957885
573,3.4,-0.6,-0.1,1.4082247018814087,0.8691235890866741,0.4292846798974319,0.08413304536644861
574,3.4,-0.6,-0.0,1.4082268476486206,0.17662454500326075,0.24221014717706635,0.7364239508967377
575,3.4,-0.6,-0.0,1.4082294702529907,0.5623737939512874,0.8018700060010507,0.5661175882887787
576,3.4,-0.6,-0.0,1.4082316160202026,0.11286768052956364,0.5843786150617432,0.8655283316757487
577,-0.5,0.1,0.0,1.4082343578338623,0.22600281724943294,0.2669321011123921,0.029951436504832007
578,0.2,-0.0,0.0,1.4082363843917847,0.3608667021388101,0.7116898544512517,0.5228711464289856
579,4.3,-0.7,-0.0,1.4082391262054443,0.9371034212464157,0.7468785591625929,0.26128363646897346
580,4.4,-0.7,-0.0,1.4082412719726562,0.6469088987452417,0.17801533608149567,0.8041671066816024
581,3.8,-0.6,-0.0,1.4082438945770264,0.5323312006588212,0.23916466654692137,0.30086529150165275
582,3.4,-0.6,-0.0,1.4082465171813965,0.2252021765742409,0.23139155814957924,0.30587440584938075
583,3.2,-0.5,-0.0,1.4082486629486084,0.09604978919901386,0.3100503157768373,0.230329402104257
584,3.0,-0.5,-0.0,1.4082512855529785,0.9885092554219649,0.47240398644014125,0.5777466009445592
585,2.9,-0.5,-0.0,1.4082540273666382,0.09897034859101417,0.09905264865870256,0.5420058894208676
586,2.8,-0.5,-0.0,1.4082555770874023,0.0144946115977026,0.103524347546613,0.1728252391314875
587,2.8,-0.5,-0.0,1.4082566499710083,0.5702249936611052,0.9888366449835785,0.9067042187143933
588,2.7,-0.4,-0.1,1.4082577228546143,0.21399645998829275,0.5545236724299473,0.16305913718407805
589,2.7,-0.4,-0.0,1.4082603454589844,0.21298515708463317,0.5486697941392856,0.6269449461748355
590,2.7,-0.4,-0.0,1.4082635641098022,0.37315904521670795,0.7219690714031969,0.6750025468332389
591,2.7,-0.4,-0.0,1.408266305923462,0.8783586912640744,0.764100590611027,0.8852430590692796
592,2.7,-0.4,-0.0,1.408268928527832,0.05647116207625191,0.6092354943077696,0.4143689338972285
593,2.7,-0.4,-0.0,1.4082715511322021,0.929557136865786,0.24883309923021735,0.5876710700131736
594,2.7,-0.4,-0.0,1.4082742929458618,0.8461551601654229,0.12722785155289296,0.3286649780434746
595,2.7,-0.4,-0.0,1.408276915550232,0.34728646906415783,0.051281594893773264,0.2190720476600464
596,2.7,-0.4,-0.1,1.408279538154602,0.9999983729682641,0.632570479399341,0.4446855635817082
597,2.7,-0.4,-0.1,1.408281683921814,0.7510620100186124,0.47363316998750005,0.07845997164687324
598,2.7,-0.4,-0.0,1.4082844257354736,0.5212763829221947,0.6684970093952314,0.11330958271676528
599,2.7,-0.4,-0.1,1.408286452293396,0.2983552890849779,0.4839693409241761,0.9823908142752548
600,2.7,-0.4,-0.1,1.4082891941070557,0.45357857276495905,0.38712194187037263,0.004395192284054383
601,2.7,-0.4,-0.0,1.4082913398742676,0.4296955106618239,0.5984463363461345,0.7661002716478188
602,2.7,-0.4,-0.0,1.4082939624786377,0.28564750326426414,0.7266930198405465,0.8472337234937171
603,2.7,-0.4,-0.0,1.4082961082458496,0.506452778645063,0.8351327367592538,0.45829169135237446
604,2.7,-0.4,-0.0,1.4082982540130615,0.2867802406278659,0.4883727073563646,0.9894420575187581
605,2.7,-0.4,-0.0,1.4083008766174316,0.08101439058723925,0.7706967019129477,0.1939789900091654
606,2.7,-0.4,-0.0,1.4083030223846436,0.23004738167546046,0.822099532616469,0.6328746160404831
607,2.7,-0.4,-0.1,1.4083056449890137,0.09884232197943144,0.15014167256806998,0.4843707610744674
608,2.7,-0.4,-0.1,1.4083083868026733,0.35281820593300184,0.9185873400677788,0.06818380244197186
609,2.7,-0.4,-0.1,1.4083105325698853,0.6111023894135085,0.69629103221562,0.026245938655384715
610,2.7,-0.4,-0.1,1.4083131551742554,0.04054974032126191,0.926211846950302,0.4558145432524493
611,2.7,-0.4,-0.1,1.4083153009414673,0.9329923702077917,0.3727508628663776,0.8246461788493382
612,2.7,-0.4,-0.0,1.4083179235458374,0.5393788573924682,0.4279304536975087,0.8665887244090378
613,-0.3,0.0,0.0,1.408320665359497,0.6450874396960763,0.7361576535670113,0.08599086201800099
614,-0.1,0.0,-0.0,1.4083232879638672,0.5803230339775666,0.40353866803584004,0.26360964656391095
615,3.7,-0.6,-0.0,1.4083259105682373,0.08254283820483677,0.7642755057511428,0.5200302998035012
616,3.6,-0.6,-0.1,1.4083285331726074,0.12283127009617723,0.4804546661861475,0.02188387264091496
617,3.0,-0.5,-0.1,1.4083306789398193,0.9275170605545157,0.16114490231505751,0.24019484970325722
618,2.6,-0.4,-0.1,1.4083333015441895,0.2603741064862992,0.9085351077840069,0.7894004380000968
619,2.3,-0.4,-0.1,1.4083360433578491,0.7061652703817655,0.8361801440637123,0.2727380819273544
620,2.2,-0.4,-0.1,1.4083386659622192,0.3413143832852833,0.2677375727719975,0.44290238928087566
621,2.0,-0.3,-0.0,1.408341407775879,0.47252827327389857,0.18378993386642617,0.508426375351769
622,2.0,-0.3,-0.0,1.4083435535430908,0.7710638899617377,0.0016138591407314218,0.7105059761558833
623,1.9,-0.3,-0.0,1.4083445072174072,0.6162160040682143,0.08991428572520999,0.7976767790114436
624,1.9,-0.3,-0.0,1.408346176147461,0.7905587497184081,0.2675053544370226,0.24871485746406452
625,1.9,-0.3,-0.0,1.408348798751831,0.4114308311923507,0.762242242297604,0.5689944974049366
626,1.9,-0.3,-0.0,1.4083515405654907,0.8059061810612884,0.5968727693689629,0.42320722943018896
627,1.8,-0.3,-0.0,1.4083541631698608,0.4659751390991185,0.14113919522294172,0.801028150524762
628,1.8,-0.3,-0.0,1.408356785774231,0.6731459062159398,0.7264128869957163,0.9749899759553714
629,1.8,-0.3,-0.0,1.4083595275878906,0.9999428011210603,0.7844323828927816,0.2850201050245713
630,1.8,-0.3,-0.0,1.4083616733551025,0.47722020781406116,0.3899641048069561,0.3862110109263365
631,1.8,-0.3,-0.0,1.4083638191223145,0.019030223341213848,0.47785211881557743,0.012914981309921303
632,1.8,-0.3,-0.0,1.4083664417266846,0.9277431802158965,0.2317027380019301,0.5438066038217894
633,1.8,-0.3,-0.0,1.4083685874938965,0.0027202626490765436,0.010299704311829805,0.8464472216859859
634,1.8,-0.3,-0.0,1.4083706140518188,0.9990139768651598,0.05086620600300329,0.4512873269347769
635,1.8,-0.3,-0.1,1.4083727598190308,0.8180404763322968,0.529522256204603,0.24469329488532032
636,1.8,-0.3,-0.0,1.4083749055862427,0.3685859745621122,0.4996744361158644,0.6153796004207137
637,1.8,-0.3,-0.0,1.4083770513534546,0.029314621136725116,0.17018649643485573,0.30388051638884384
638,1.8,-0.3,-0.0,1.4083791971206665,0.23714267104612574,0.9337599143173029,0.9471813277120542
639,1.8,-0.3,-0.0,1.4083813428878784,0.1330943279865333,0.142853134023341,0.23353016410966887
640,1.8,-0.3,-0.0,1.4083828926086426,0.38417839464193093,0.8115633744832661,0.5753936038998886
641,1.8,-0.3,-0.0,1.4083850383758545,0.8315898672363071,0.5478775009839789,0.9654273917929738
642,1.8,-0.3,-0.0,1.4083871841430664,0.37353897328521835,0.3945222163920423,0.6231518386774223
643,1.8,-0.3,-0.0,1.4083893299102783,0.45649311603855636,0.5553873791895548,0.8020249272415563
644,1.8,-0.3,-0.1,1.4083914756774902,0.15827730850405042,0.8651246933410333,0.34668938675874716
645,1.8,-0.3,-0.1,1.4083936214447021,0.5770805280016607,0.291954002878024,0.4777405558904494
646,1.8,-0.3,-0.1,1.4083951711654663,0.8562266885954676,0.7999060122210485,0.18208999831946848
647,1.8,-0.3,-0.1,1.4083973169326782,0.8603832345657971,0.5403556436966528,0.21446745577506687
648,1.8,-0.3,-0.0,1.4083994626998901,0.21929624132640624,0.5151206282308732,0.8200841751035062
649,1.8,-0.3,-0.0,1.4084014892578125,0.5101585168207983,0.775601607867417,0.012183932981550516
650,1.8,-0.3,-0.0,1.4084036350250244,0.28796119369842466,0.29317170709332674,0.3375217029566776
651,1.8,-0.3,-0.0,1.4084057807922363,0.7949197726435061,0.7676785738748368,0.36126716674435133
652,1.8,-0.3,-0.1,1.4084079265594482,0.6994054777067225,0.4661489423881613,0.06359090411491208
653,1.8,-0.3,-0.1,1.4084100723266602,0.5691542066677256,0.07487066493966033,0.30930721045470677
654,1.8,-0.3,-0.1,1.408412218093872,0.12849463383326598,0.13682374752692106,0.3625670548947826
655,1.8,-0.3,-0.1,1.408414363861084,0.7865024924819358,0.057485222258149005,0.1124439593273232
656,1.8,-0.3,-0.0,1.408416509628296,0.6480319641292798,0.02124706538937704,0.3892474099033286
657,1.8,-0.3,-0.0,1.4084186553955078,0.5875730584293887,0.5272668869876602,0.920783429476712
658,1.8,-0.3,-0.0,1.4084206819534302,0.837959352563316,0.7537975999698517,0.40211688122279254
659,1.8,-0.3,-0.0,1.408422827720642,0.40378091672246263,0.3773456859627513,0.9719073147490217
660,1.8,-0.3,-0.1,1.408424973487854,0.9017744072584327,0.6322892052090051,0.3412950739067838
661,1.8,-0.3,-0.1,1.408427119255066,0.014610295430523057,0.5609551294497667,0.015580547074902862
662,1.8,-0.3,-0.1,1.4084298610687256,0.6088098195831316,0.07388694943903196,0.5396851719295873
663,1.8,-0.3,-0.1,1.4084314107894897,0.5964129343157575,0.36739406812813247,0.803586925253166
664,1.1,-0.2,-0.0,1.4084335565567017,0.8040685230699244,0.9264497446282878,0.7227598115729068
665,-0.6,0.1,0.0,1.408435583114624,0.03468188190618304,0.0037300742658070707,0.11203467862543748
666,-1.8,0.3,0.0,1.408437728881836,0.021357495626877165,0.925884289187988,0.946023639157527
667,-1.6,0.3,0.0,1.4084398746490479,0.9999297392276121,0.02492208473747093,0.8389025563190134
668,-1.4,0.2,-0.0,1.4084426164627075,0.08786815396306868,0.5617112421874765,0.24106821459948957
669,-1.1,0.2,0.0,1.4084446430206299,0.09281876605982231,0.3857158328377185,0.08837954110960133
670,-0.4,0.1,-0.0,1.4084467887878418,0.6302102515968,0.49950236941778414,0.3042536752745556
671,0.3,-0.1,-0.0,1.4084489345550537,0.39150730412490764,0.03113245036056711,0.769691687156734
672,0.8,-0.1,-0.0,1.4084510803222656,0.33873754899831165,0.1177782538019968,0.5086385456784204
673,1.2,-0.2,-0.0,1.4084532260894775,0.023969684155001114,0.8627745739412015,0.7755283393829134
674,1.4,-0.2,-0.0,1.4084547758102417,0.002208336586322912,0.4345001789129733,0.9237585899099688
675,1.5,-0.3,-0.0,1.4084553718566895,0.8161203913363411,0.5105735894645518,0.6413062672739361
676,1.0,-0.2,-0.0,1.4084553718566895,0.450525990217698,0.18788510958368865,0.5957409570379877
677,-0.6,0.1,-0.0,1.4084547758102417,0.8639979579883361,0.22327726233779355,0.7285476508712545
678,-1.6,0.3,0.0,1.4084537029266357,0.6710943411768346,0.9952647594587909,0.2983987114331831
679,-1.4,0.2,-0.0,1.4084527492523193,0.2843410594709519,0.08015710094357897,0.7521503554816212
680,-0.9,0.1,-0.0,1.4084521532058716,0.7100267137584315,0.008944736755722271,0.6723123073360345
681,-0.3,0.0,-0.0,1.4084521532058716,0.20848902398606972,0.29006806867871093,0.6780693794560826
682,0.4,-0.1,-0.0,1.4084521532058716,0.33225871696992104,0.9416734132699208,0.12664499084395842
683,0.9,-0.1,-0.0,1.4084532260894775,0.024923806216254563,0.0670815426071174,0.9521577660008198
684,1.2,-0.2,-0.0,1.4084542989730835,0.35307202763938783,0.6511740574896434,0.13955739024696145
685,1.4,-0.2,-0.0,1.4084553718566895,0.3262112182167607,0.5035380384924176,0.5199734007080788
686,0.9,-0.1,-0.0,1.4084564447402954,0.5514994941838668,0.6128458820569752,0.3177668752143642
687,-0.7,0.1,-0.0,1.4084564447402954,0.8330590014377875,0.5987061294845087,0.8683674848761863
688,-1.6,0.3,0.0,1.4084558486938477,0.4926632527284778,0.9548206711051259,0.08348279253382196
689,-1.4,0.2,-0.0,1.4084553718566895,0.6652593063467078,0.22822045125123103,0.787454933440197
690,-0.9,0.1,-0.0,1.4084547758102417,0.06708787648211978,0.4349620269591523,0.8907556839165608
691,-0.3,0.0,-0.0,1.4084542989730835,0.6663821475255501,0.0627054147155297,0.8422158259566661
692,0.4,-0.1,-0.0,1.4084542989730835,0.8646664370896043,0.3764398990908825,0.24514870042321768
693,0.9,-0.1,-0.0,1.4084547758102417,0.6268722078544197,0.5333323285965944,0.980206855672603
694,1.2,-0.2,-0.0,1.4084558486938477,0.8195910660549056,0.548232211502073,0.3306325400805443
695,1.4,-0.2,-0.0,1.4084569215774536,0.5512289973093916,0.9758368531564556,0.303103849680302
696,0.9,-0.1,-0.0,1.4084575176239014,0.4340513047314789,0.3911766682140828,0.9733888104256087
697,-0.7,0.1,-0.0,1.4084575176239014,0.8446307659675051,0.11406686226068041,0.8750510978433269
698,-1.6,0.3,0.0,1.4084569215774536,0.8438220241379459,0.09227783850217153,0.20647415463855545
699,-1.3,0.2,-0.0,1.4084564447402954,0.5582472571957433,0.09873139131288522,0.6607519701461309
700,-0.9,0.1,-0.0,1.4084553718566895,0.5546047991878056,0.3325136560538444,0.4636133493051886
701,-0.3,0.0,-0.0,1.4084553718566895,0.6503573806121331,0.6210641378102275,0.5485618253136304
702,0.4,-0.1,-0.0,1.4084553718566895,0.24490672745348363,0.8330327991826629,0.9932761137327667
703,0.9,-0.1,-0.0,1.4084553718566895,0.9210394820965836,0.09607321505274624,0.8417019667742078
704,1.2,-0.2,-0.0,1.4084564447402954,0.11301687783167225,0.2684806390724622,0.6686983689196114
705,1.4,-0.2,-0.0,1.4084575176239014,0.8523652836018076,0.9849604507229679,0.46860591169478094
706,0.9,-0.1,-0.0,1.4084579944610596,0.48779864395842965,0.5557201597206203,0.23007423445394803
707,-0.7,0.1,-0.0,1.4084579944610596,0.29091984118320957,0.643727733020571,0.18495715052930817
708,-1.6,0.3,0.0,1.4084575176239014,0.3712843099690507,0.31030069936392257,0.7362714082636908
709,-1.4,0.2,-0.0,1.4084569215774536,0.5951491787438394,0.5932485572119105,0.9387394729512057
710,-0.9,0.1,0.0,1.4084564447402954,0.3230851287067613,0.444564504273094,0.9750655220358586
711,-0.3,0.0,-0.0,1.4084558486938477,0.8266330905154344,0.11663035391486742,0.46812333059823763
712,0.4,-0.1,0.0,1.4084558486938477,0.8515795930980825,0.7281534659007013,0.5189850960060272
713,0.9,-0.1,-0.0,1.4084564447402954,0.3761290890816229,0.45270334977763715,0.006465937292840618
714,1.2,-0.2,-0.0,1.4084575176239014,0.9326679563125265,0.765413850104481,0.4031676774513978
715,1.4,-0.2,-0.0,1.4084585905075073,0.2871749627439496,0.6912047166311294,0.07096856609712587
716,0.9,-0.1,-0.0,1.4084590673446655,0.8628662059146845,0.11806518790931719,0.16698667738278072
717,-0.7,0.1,0.0,1.4084590673446655,0.7798570682536463,0.4918049347726987,0.717405288006172
718,-1.6,0.3,-0.0,1.4084584712982178,0.9240921054019905,0.3757624968663883,0.8771754759840523
719,-1.4,0.2,0.0,1.4084579944610596,0.22958960454813682,0.028400233481191473,0.43279520569345387
720,-0.9,0.1,0.0,1.4084569215774536,0.5718117916371368,0.49746312411260063,0.9842360025399733
721,-0.3,0.0,0.0,1.4084564447402954,0.9899526883691431,0.18941853520852636,0.36806120238223883
